gameID,condition,stim_id,study_phase,trial_type,trialNum,response,rt,rt_done1,rt_done2,collection_name_0,collection_name_1,level_name_0,level_name_1,layout_0,layout_1
3940-a6a959f6-2dc0-43d7-9f8e-e5e5d3cfc436,difficult,6790956f96019241f9c4f665,pretest,sokoban-compare,1,0,25399,12683.0,24316.0,Sokogen-990602-Levels,Microban,17,41,"['#####', '#@  ###', '# $$$ #', '## ...#', '#   # #', '#     #', '#######']","['#######', '#     #', '#@$$$ ##', '#  #...#', '##    ##', ' ######']"
3940-a6a959f6-2dc0-43d7-9f8e-e5e5d3cfc436,difficult,6790956f96019241f9c4f665,pretest,sokoban-compare,2,0,25113,12397.0,24147.0,Microban,Dimitri-and-Yorick,33,37,"['#######', '#. #  #', '#  $  #', '#. $#@#', '#  $  #', '#. #  #', '#######']","['######', '# @$.#', '# $$.#', '#  #.#', '#    #', '######']"
3940-a6a959f6-2dc0-43d7-9f8e-e5e5d3cfc436,difficult,6790956f96019241f9c4f665,pretest,sokoban-compare,3,1,23313,10846.0,22630.0,Microban,Microban,41,48,"['#######', '#     #', '#@$$$ ##', '#  #...#', '##    ##', ' ######']","['######', '#  @ #', '#  # ##', '# .#  ##', '# .$$$ #', '# .#   #', '####   #', '   #####']"
3940-a6a959f6-2dc0-43d7-9f8e-e5e5d3cfc436,difficult,6790956f96019241f9c4f665,pretest,sokoban-compare,4,0,25347,12147.0,24664.0,Microban,Sokogen-990602-Levels,33,19,"['#######', '#. #  #', '#  $  #', '#. $#@#', '#  $  #', '#. #  #', '#######']","['######', '#@  .#', '#$$$ #', '#. # #', '#  . #', '######']"
3940-a6a959f6-2dc0-43d7-9f8e-e5e5d3cfc436,difficult,6790956f96019241f9c4f665,pretest,sokoban-compare,5,0,24880,13645.0,24112.0,Sokogen-990602-Levels,Sokogen-990602-Levels,19,39,"['######', '#@  .#', '#$$$ #', '#. # #', '#  . #', '######']","['######', '#    #', '# ## ##', '# . * ###', '## $ *  #', ' #  #  @#', ' ########']"
3940-a6a959f6-2dc0-43d7-9f8e-e5e5d3cfc436,difficult,6790956f96019241f9c4f665,pretest,sokoban-compare,6,1,38062,14329.0,37545.0,Sokogen-990602-Levels,Sokogen-990602-Levels,6,39,"[' #####', '##   ###', '# .# $@#', '#  # # #', '# *  $.#', '#    ###', '######']","['######', '#    #', '# ## ##', '# . * ###', '## $ *  #', ' #  #  @#', ' ########']"
3940-a6a959f6-2dc0-43d7-9f8e-e5e5d3cfc436,difficult,6790956f96019241f9c4f665,pretest,sokoban-compare,7,1,50899,31514.0,49864.0,Sokogen-990602-Levels,Dimitri-and-Yorick,17,37,"['#####', '#@  ###', '# $$$ #', '## ...#', '#   # #', '#     #', '#######']","['######', '# @$.#', '# $$.#', '#  #.#', '#    #', '######']"
3940-a6a959f6-2dc0-43d7-9f8e-e5e5d3cfc436,difficult,6790956f96019241f9c4f665,pretest,sokoban-compare,8,0,25495,12563.0,24963.0,Sokogen-990602-Levels,Microban,6,48,"[' #####', '##   ###', '# .# $@#', '#  # # #', '# *  $.#', '#    ###', '######']","['######', '#  @ #', '#  # ##', '# .#  ##', '# .$$$ #', '# .#   #', '####   #', '   #####']"
4638-717aec54-5d36-49f1-8eee-4ed826fd21d6,difficult,6790956f96019241f9c4f664,pretest,sokoban-compare,1,0,34429,13044.0,25230.0,Sokogen-990602-Levels,Dimitri-and-Yorick,17,37,"['#####', '#@  ###', '# $$$ #', '## ...#', '#   # #', '#     #', '#######']","['######', '# @$.#', '# $$.#', '#  #.#', '#    #', '######']"
4638-717aec54-5d36-49f1-8eee-4ed826fd21d6,difficult,6790956f96019241f9c4f664,pretest,sokoban-compare,2,0,27832,15474.0,27158.0,Microban,Dimitri-and-Yorick,33,37,"['#######', '#. #  #', '#  $  #', '#. $#@#', '#  $  #', '#. #  #', '#######']","['######', '# @$.#', '# $$.#', '#  #.#', '#    #', '######']"
4638-717aec54-5d36-49f1-8eee-4ed826fd21d6,difficult,6790956f96019241f9c4f664,pretest,sokoban-compare,3,1,27744,13034.0,24685.0,Sokogen-990602-Levels,Microban,19,41,"['######', '#@  .#', '#$$$ #', '#. # #', '#  . #', '######']","['#######', '#     #', '#@$$$ ##', '#  #...#', '##    ##', ' ######']"
4638-717aec54-5d36-49f1-8eee-4ed826fd21d6,difficult,6790956f96019241f9c4f664,pretest,sokoban-compare,4,1,25127,12678.0,23329.0,Sokogen-990602-Levels,Microban,6,48,"[' #####', '##   ###', '# .# $@#', '#  # # #', '# *  $.#', '#    ###', '######']","['######', '#  @ #', '#  # ##', '# .#  ##', '# .$$$ #', '# .#   #', '####   #', '   #####']"
4638-717aec54-5d36-49f1-8eee-4ed826fd21d6,difficult,6790956f96019241f9c4f664,pretest,sokoban-compare,5,0,27101,10728.0,23721.0,Sokogen-990602-Levels,Microban,17,48,"['#####', '#@  ###', '# $$$ #', '## ...#', '#   # #', '#     #', '#######']","['######', '#  @ #', '#  # ##', '# .#  ##', '# .$$$ #', '# .#   #', '####   #', '   #####']"
4638-717aec54-5d36-49f1-8eee-4ed826fd21d6,difficult,6790956f96019241f9c4f664,pretest,sokoban-compare,6,1,23034,10704.0,22464.0,Microban,Sokogen-990602-Levels,41,6,"['#######', '#     #', '#@$$$ ##', '#  #...#', '##    ##', ' ######']","[' #####', '##   ###', '# .# $@#', '#  # # #', '# *  $.#', '#    ###', '######']"
4638-717aec54-5d36-49f1-8eee-4ed826fd21d6,difficult,6790956f96019241f9c4f664,pretest,sokoban-compare,7,1,22608,10907.0,21704.0,Microban,Sokogen-990602-Levels,33,39,"['#######', '#. #  #', '#  $  #', '#. $#@#', '#  $  #', '#. #  #', '#######']","['######', '#    #', '# ## ##', '# . * ###', '## $ *  #', ' #  #  @#', ' ########']"
4638-717aec54-5d36-49f1-8eee-4ed826fd21d6,difficult,6790956f96019241f9c4f664,pretest,sokoban-compare,8,0,24155,11188.0,21966.0,Sokogen-990602-Levels,Sokogen-990602-Levels,19,39,"['######', '#@  .#', '#$$$ #', '#. # #', '#  . #', '######']","['######', '#    #', '# ## ##', '# . * ###', '## $ *  #', ' #  #  @#', ' ########']"
3940-a6a959f6-2dc0-43d7-9f8e-e5e5d3cfc436,difficult,6790956f96019241f9c4f665,posttest,sokoban-compare,1,1,37056,11829.0,35998.0,Sokogen-990602-Levels,Sokogen-990602-Levels,41,40,"['######', '#    #', '# ## ##', '# .$@.###', '## $$   #', ' #  #.  #', ' ########']","['######', '#    ###', '# @#$  #', '# *.$  #', '# . #  #', '########']"
3940-a6a959f6-2dc0-43d7-9f8e-e5e5d3cfc436,difficult,6790956f96019241f9c4f665,posttest,sokoban-compare,2,1,30796,16921.0,29779.0,Microban,Sokogen-990602-Levels,17,40,"['#####', '# @ #', '#...#', '#$$$##', '#    #', '#    #', '######']","['######', '#    ###', '# @#$  #', '# *.$  #', '# . #  #', '########']"
3940-a6a959f6-2dc0-43d7-9f8e-e5e5d3cfc436,difficult,6790956f96019241f9c4f665,posttest,sokoban-compare,3,0,35209,14577.0,34299.0,Microcosmos,Sokogen-990602-Levels,28,46,"['     ####', '    ##  #', '   ## . #', '#### $  #', '# $ $.@##', '#  .  ##', '#######']","['#######', '##  ###', '## .$ #', '# $$  #', '# #. .#', '#@  ###', '#######']"
3940-a6a959f6-2dc0-43d7-9f8e-e5e5d3cfc436,difficult,6790956f96019241f9c4f665,posttest,sokoban-compare,4,0,30433,11797.0,29339.0,Microban,Microban,26,43,"[' #####', ' # @ #', ' #   #', '###$ #', '# ...#', '# $$ #', '###  #', '  ####']","['     ####', '     # @#', '     #  #', '###### .#', '#   $  .#', '#  $$# .#', '#    ####', '###  #', '  ####']"
3940-a6a959f6-2dc0-43d7-9f8e-e5e5d3cfc436,difficult,6790956f96019241f9c4f665,posttest,sokoban-compare,5,1,27548,15085.0,26746.0,Sokogen-990602-Levels,Sokogen-990602-Levels,41,46,"['######', '#    #', '# ## ##', '# .$@.###', '## $$   #', ' #  #.  #', ' ########']","['#######', '##  ###', '## .$ #', '# $$  #', '# #. .#', '#@  ###', '#######']"
3940-a6a959f6-2dc0-43d7-9f8e-e5e5d3cfc436,difficult,6790956f96019241f9c4f665,posttest,sokoban-compare,6,0,26120,13912.0,25123.0,Microban,Microcosmos,26,28,"[' #####', ' # @ #', ' #   #', '###$ #', '# ...#', '# $$ #', '###  #', '  ####']","['     ####', '    ##  #', '   ## . #', '#### $  #', '# $ $.@##', '#  .  ##', '#######']"
3940-a6a959f6-2dc0-43d7-9f8e-e5e5d3cfc436,difficult,6790956f96019241f9c4f665,posttest,sokoban-compare,7,0,24681,11843.0,23737.0,Sokogen-990602-Levels,Microban,14,43,"['######', '#  . #', '# #. ##', '#  .  #', '# $$$ #', '#  # @#', '#######']","['     ####', '     # @#', '     #  #', '###### .#', '#   $  .#', '#  $$# .#', '#    ####', '###  #', '  ####']"
3940-a6a959f6-2dc0-43d7-9f8e-e5e5d3cfc436,difficult,6790956f96019241f9c4f665,posttest,sokoban-compare,8,0,23238,11300.0,22485.0,Microban,Sokogen-990602-Levels,17,14,"['#####', '# @ #', '#...#', '#$$$##', '#    #', '#    #', '######']","['######', '#  . #', '# #. ##', '#  .  #', '# $$$ #', '#  # @#', '#######']"
4638-717aec54-5d36-49f1-8eee-4ed826fd21d6,difficult,6790956f96019241f9c4f664,posttest,sokoban-compare,1,0,52644,12137.0,24098.0,Microcosmos,Microban,28,43,"['     ####', '    ##  #', '   ## . #', '#### $  #', '# $ $.@##', '#  .  ##', '#######']","['     ####', '     # @#', '     #  #', '###### .#', '#   $  .#', '#  $$# .#', '#    ####', '###  #', '  ####']"
4638-717aec54-5d36-49f1-8eee-4ed826fd21d6,difficult,6790956f96019241f9c4f664,posttest,sokoban-compare,2,1,27265,13824.0,25815.0,Microban,Microban,26,43,"[' #####', ' # @ #', ' #   #', '###$ #', '# ...#', '# $$ #', '###  #', '  ####']","['     ####', '     # @#', '     #  #', '###### .#', '#   $  .#', '#  $$# .#', '#    ####', '###  #', '  ####']"
4638-717aec54-5d36-49f1-8eee-4ed826fd21d6,difficult,6790956f96019241f9c4f664,posttest,sokoban-compare,3,1,44141,21602.0,40715.0,Sokogen-990602-Levels,Sokogen-990602-Levels,41,40,"['######', '#    #', '# ## ##', '# .$@.###', '## $$   #', ' #  #.  #', ' ########']","['######', '#    ###', '# @#$  #', '# *.$  #', '# . #  #', '########']"
4638-717aec54-5d36-49f1-8eee-4ed826fd21d6,difficult,6790956f96019241f9c4f664,posttest,sokoban-compare,4,0,29986,12035.0,28337.0,Microban,Sokogen-990602-Levels,17,46,"['#####', '# @ #', '#...#', '#$$$##', '#    #', '#    #', '######']","['#######', '##  ###', '## .$ #', '# $$  #', '# #. .#', '#@  ###', '#######']"
4638-717aec54-5d36-49f1-8eee-4ed826fd21d6,difficult,6790956f96019241f9c4f664,posttest,sokoban-compare,5,1,29015,15590.0,27959.0,Sokogen-990602-Levels,Microcosmos,14,28,"['######', '#  . #', '# #. ##', '#  .  #', '# $$$ #', '#  # @#', '#######']","['     ####', '    ##  #', '   ## . #', '#### $  #', '# $ $.@##', '#  .  ##', '#######']"
4638-717aec54-5d36-49f1-8eee-4ed826fd21d6,difficult,6790956f96019241f9c4f664,posttest,sokoban-compare,6,1,42277,27731.0,40732.0,Sokogen-990602-Levels,Sokogen-990602-Levels,41,46,"['######', '#    #', '# ## ##', '# .$@.###', '## $$   #', ' #  #.  #', ' ########']","['#######', '##  ###', '## .$ #', '# $$  #', '# #. .#', '#@  ###', '#######']"
4638-717aec54-5d36-49f1-8eee-4ed826fd21d6,difficult,6790956f96019241f9c4f664,posttest,sokoban-compare,7,1,26238,12127.0,25585.0,Microban,Sokogen-990602-Levels,17,14,"['#####', '# @ #', '#...#', '#$$$##', '#    #', '#    #', '######']","['######', '#  . #', '# #. ##', '#  .  #', '# $$$ #', '#  # @#', '#######']"
4638-717aec54-5d36-49f1-8eee-4ed826fd21d6,difficult,6790956f96019241f9c4f664,posttest,sokoban-compare,8,1,25882,12946.0,24167.0,Microban,Sokogen-990602-Levels,26,40,"[' #####', ' # @ #', ' #   #', '###$ #', '# ...#', '# $$ #', '###  #', '  ####']","['######', '#    ###', '# @#$  #', '# *.$  #', '# . #  #', '########']"
7209-f522767f-26aa-4a22-b50a-17f64304a083,difficult,6790956f96019241f9c4f666,pretest,sokoban-compare,1,1,30270,18680.0,29107.0,Sokogen-990602-Levels,Sokogen-990602-Levels,19,39,"['######', '#@  .#', '#$$$ #', '#. # #', '#  . #', '######']","['######', '#    #', '# ## ##', '# . * ###', '## $ *  #', ' #  #  @#', ' ########']"
6110-7c3fd621-28f8-4d65-b650-9c8fcc6290c8,difficult,6790956f96019241f9c4f667,pretest,sokoban-compare,1,0,24438,12409.0,23681.0,Dimitri-and-Yorick,Sokogen-990602-Levels,37,6,"['######', '# @$.#', '# $$.#', '#  #.#', '#    #', '######']","[' #####', '##   ###', '# .# $@#', '#  # # #', '# *  $.#', '#    ###', '######']"
7209-f522767f-26aa-4a22-b50a-17f64304a083,difficult,6790956f96019241f9c4f666,pretest,sokoban-compare,2,1,28867,11821.0,28423.0,Sokogen-990602-Levels,Sokogen-990602-Levels,19,6,"['######', '#@  .#', '#$$$ #', '#. # #', '#  . #', '######']","[' #####', '##   ###', '# .# $@#', '#  # # #', '# *  $.#', '#    ###', '######']"
6110-7c3fd621-28f8-4d65-b650-9c8fcc6290c8,difficult,6790956f96019241f9c4f667,pretest,sokoban-compare,2,0,25021,12669.0,24473.0,Sokogen-990602-Levels,Microban,17,48,"['#####', '#@  ###', '# $$$ #', '## ...#', '#   # #', '#     #', '#######']","['######', '#  @ #', '#  # ##', '# .#  ##', '# .$$$ #', '# .#   #', '####   #', '   #####']"
6110-7c3fd621-28f8-4d65-b650-9c8fcc6290c8,difficult,6790956f96019241f9c4f667,pretest,sokoban-compare,3,0,27142,14309.0,26415.0,Sokogen-990602-Levels,Sokogen-990602-Levels,19,17,"['######', '#@  .#', '#$$$ #', '#. # #', '#  . #', '######']","['#####', '#@  ###', '# $$$ #', '## ...#', '#   # #', '#     #', '#######']"
7209-f522767f-26aa-4a22-b50a-17f64304a083,difficult,6790956f96019241f9c4f666,pretest,sokoban-compare,3,0,48203,18353.0,47597.0,Microban,Microban,41,48,"['#######', '#     #', '#@$$$ ##', '#  #...#', '##    ##', ' ######']","['######', '#  @ #', '#  # ##', '# .#  ##', '# .$$$ #', '# .#   #', '####   #', '   #####']"
4733-c6a6e973-18d8-4b07-9e81-737cf6b3fe7b,difficult,6790956f96019241f9c4f66c,pretest,sokoban-compare,1,0,29094,16245.0,28118.0,Microban,Dimitri-and-Yorick,33,37,"['#######', '#. #  #', '#  $  #', '#. $#@#', '#  $  #', '#. #  #', '#######']","['######', '# @$.#', '# $$.#', '#  #.#', '#    #', '######']"
7209-f522767f-26aa-4a22-b50a-17f64304a083,difficult,6790956f96019241f9c4f666,pretest,sokoban-compare,4,0,25032,12899.0,24509.0,Microban,Microban,33,48,"['#######', '#. #  #', '#  $  #', '#. $#@#', '#  $  #', '#. #  #', '#######']","['######', '#  @ #', '#  # ##', '# .#  ##', '# .$$$ #', '# .#   #', '####   #', '   #####']"
2839-a3cd9207-4f4c-4db0-a0db-5d16fa3e57ac,difficult,6790956f96019241f9c4f669,pretest,sokoban-compare,1,1,24061,11661.0,22813.0,Sokogen-990602-Levels,Microban,19,48,"['######', '#@  .#', '#$$$ #', '#. # #', '#  . #', '######']","['######', '#  @ #', '#  # ##', '# .#  ##', '# .$$$ #', '# .#   #', '####   #', '   #####']"
6110-7c3fd621-28f8-4d65-b650-9c8fcc6290c8,difficult,6790956f96019241f9c4f667,pretest,sokoban-compare,4,0,30922,18972.0,30486.0,Microban,Dimitri-and-Yorick,33,37,"['#######', '#. #  #', '#  $  #', '#. $#@#', '#  $  #', '#. #  #', '#######']","['######', '# @$.#', '# $$.#', '#  #.#', '#    #', '######']"
0047-f873669a-075a-4f22-80d2-c33cd8217451,difficult,6790956f96019241f9c4f668,pretest,sokoban-compare,1,0,28109,13397.0,26365.0,Dimitri-and-Yorick,Sokogen-990602-Levels,37,6,"['######', '# @$.#', '# $$.#', '#  #.#', '#    #', '######']","[' #####', '##   ###', '# .# $@#', '#  # # #', '# *  $.#', '#    ###', '######']"
2839-a3cd9207-4f4c-4db0-a0db-5d16fa3e57ac,difficult,6790956f96019241f9c4f669,pretest,sokoban-compare,2,0,23814,11478.0,22302.0,Microban,Sokogen-990602-Levels,41,39,"['#######', '#     #', '#@$$$ ##', '#  #...#', '##    ##', ' ######']","['######', '#    #', '# ## ##', '# . * ###', '## $ *  #', ' #  #  @#', ' ########']"
6110-7c3fd621-28f8-4d65-b650-9c8fcc6290c8,difficult,6790956f96019241f9c4f667,pretest,sokoban-compare,5,0,26783,12428.0,26285.0,Sokogen-990602-Levels,Microban,19,41,"['######', '#@  .#', '#$$$ #', '#. # #', '#  . #', '######']","['#######', '#     #', '#@$$$ ##', '#  #...#', '##    ##', ' ######']"
4733-c6a6e973-18d8-4b07-9e81-737cf6b3fe7b,difficult,6790956f96019241f9c4f66c,pretest,sokoban-compare,2,1,44101,16658.0,43160.0,Dimitri-and-Yorick,Sokogen-990602-Levels,37,39,"['######', '# @$.#', '# $$.#', '#  #.#', '#    #', '######']","['######', '#    #', '# ## ##', '# . * ###', '## $ *  #', ' #  #  @#', ' ########']"
0047-f873669a-075a-4f22-80d2-c33cd8217451,difficult,6790956f96019241f9c4f668,pretest,sokoban-compare,2,1,24093,11365.0,23406.0,Sokogen-990602-Levels,Sokogen-990602-Levels,19,6,"['######', '#@  .#', '#$$$ #', '#. # #', '#  . #', '######']","[' #####', '##   ###', '# .# $@#', '#  # # #', '# *  $.#', '#    ###', '######']"
2839-a3cd9207-4f4c-4db0-a0db-5d16fa3e57ac,difficult,6790956f96019241f9c4f669,pretest,sokoban-compare,3,1,23512,10862.0,21647.0,Microban,Microban,33,48,"['#######', '#. #  #', '#  $  #', '#. $#@#', '#  $  #', '#. #  #', '#######']","['######', '#  @ #', '#  # ##', '# .#  ##', '# .$$$ #', '# .#   #', '####   #', '   #####']"
6110-7c3fd621-28f8-4d65-b650-9c8fcc6290c8,difficult,6790956f96019241f9c4f667,pretest,sokoban-compare,6,0,23717,10604.0,23266.0,Microban,Sokogen-990602-Levels,33,39,"['#######', '#. #  #', '#  $  #', '#. $#@#', '#  $  #', '#. #  #', '#######']","['######', '#    #', '# ## ##', '# . * ###', '## $ *  #', ' #  #  @#', ' ########']"
7209-f522767f-26aa-4a22-b50a-17f64304a083,difficult,6790956f96019241f9c4f666,pretest,sokoban-compare,5,1,30826,16188.0,30231.0,Dimitri-and-Yorick,Sokogen-990602-Levels,37,6,"['######', '# @$.#', '# $$.#', '#  #.#', '#    #', '######']","[' #####', '##   ###', '# .# $@#', '#  # # #', '# *  $.#', '#    ###', '######']"
0047-f873669a-075a-4f22-80d2-c33cd8217451,difficult,6790956f96019241f9c4f668,pretest,sokoban-compare,3,0,31069,16949.0,30429.0,Microban,Sokogen-990602-Levels,41,39,"['#######', '#     #', '#@$$$ ##', '#  #...#', '##    ##', ' ######']","['######', '#    #', '# ## ##', '# . * ###', '## $ *  #', ' #  #  @#', ' ########']"
2839-a3cd9207-4f4c-4db0-a0db-5d16fa3e57ac,difficult,6790956f96019241f9c4f669,pretest,sokoban-compare,4,1,23502,11615.0,22598.0,Dimitri-and-Yorick,Sokogen-990602-Levels,37,6,"['######', '# @$.#', '# $$.#', '#  #.#', '#    #', '######']","[' #####', '##   ###', '# .# $@#', '#  # # #', '# *  $.#', '#    ###', '######']"
6110-7c3fd621-28f8-4d65-b650-9c8fcc6290c8,difficult,6790956f96019241f9c4f667,pretest,sokoban-compare,7,0,23982,11673.0,23462.0,Microban,Sokogen-990602-Levels,41,6,"['#######', '#     #', '#@$$$ ##', '#  #...#', '##    ##', ' ######']","[' #####', '##   ###', '# .# $@#', '#  # # #', '# *  $.#', '#    ###', '######']"
4733-c6a6e973-18d8-4b07-9e81-737cf6b3fe7b,difficult,6790956f96019241f9c4f66c,pretest,sokoban-compare,3,0,45124,33716.0,44549.0,Sokogen-990602-Levels,Microban,19,41,"['######', '#@  .#', '#$$$ #', '#. # #', '#  . #', '######']","['#######', '#     #', '#@$$$ ##', '#  #...#', '##    ##', ' ######']"
7209-f522767f-26aa-4a22-b50a-17f64304a083,difficult,6790956f96019241f9c4f666,pretest,sokoban-compare,6,1,27120,10819.0,24953.0,Sokogen-990602-Levels,Dimitri-and-Yorick,17,37,"['#####', '#@  ###', '# $$$ #', '## ...#', '#   # #', '#     #', '#######']","['######', '# @$.#', '# $$.#', '#  #.#', '#    #', '######']"
2839-a3cd9207-4f4c-4db0-a0db-5d16fa3e57ac,difficult,6790956f96019241f9c4f669,pretest,sokoban-compare,5,1,23215,12398.0,22791.0,Sokogen-990602-Levels,Sokogen-990602-Levels,19,17,"['######', '#@  .#', '#$$$ #', '#. # #', '#  . #', '######']","['#####', '#@  ###', '# $$$ #', '## ...#', '#   # #', '#     #', '#######']"
0047-f873669a-075a-4f22-80d2-c33cd8217451,difficult,6790956f96019241f9c4f668,pretest,sokoban-compare,4,0,23317,11949.0,22501.0,Microban,Sokogen-990602-Levels,33,39,"['#######', '#. #  #', '#  $  #', '#. $#@#', '#  $  #', '#. #  #', '#######']","['######', '#    #', '# ## ##', '# . * ###', '## $ *  #', ' #  #  @#', ' ########']"
6110-7c3fd621-28f8-4d65-b650-9c8fcc6290c8,difficult,6790956f96019241f9c4f667,pretest,sokoban-compare,8,0,26360,10901.0,25992.0,Microban,Sokogen-990602-Levels,48,39,"['######', '#  @ #', '#  # ##', '# .#  ##', '# .$$$ #', '# .#   #', '####   #', '   #####']","['######', '#    #', '# ## ##', '# . * ###', '## $ *  #', ' #  #  @#', ' ########']"
4733-c6a6e973-18d8-4b07-9e81-737cf6b3fe7b,difficult,6790956f96019241f9c4f66c,pretest,sokoban-compare,4,1,27545,12359.0,27105.0,Microban,Microban,33,48,"['#######', '#. #  #', '#  $  #', '#. $#@#', '#  $  #', '#. #  #', '#######']","['######', '#  @ #', '#  # ##', '# .#  ##', '# .$$$ #', '# .#   #', '####   #', '   #####']"
0047-f873669a-075a-4f22-80d2-c33cd8217451,difficult,6790956f96019241f9c4f668,pretest,sokoban-compare,5,1,22961,11744.0,22421.0,Microban,Dimitri-and-Yorick,33,37,"['#######', '#. #  #', '#  $  #', '#. $#@#', '#  $  #', '#. #  #', '#######']","['######', '# @$.#', '# $$.#', '#  #.#', '#    #', '######']"
2839-a3cd9207-4f4c-4db0-a0db-5d16fa3e57ac,difficult,6790956f96019241f9c4f669,pretest,sokoban-compare,6,1,25622,13280.0,24654.0,Sokogen-990602-Levels,Sokogen-990602-Levels,17,39,"['#####', '#@  ###', '# $$$ #', '## ...#', '#   # #', '#     #', '#######']","['######', '#    #', '# ## ##', '# . * ###', '## $ *  #', ' #  #  @#', ' ########']"
7209-f522767f-26aa-4a22-b50a-17f64304a083,difficult,6790956f96019241f9c4f666,pretest,sokoban-compare,7,1,34438,10688.0,34071.0,Microban,Sokogen-990602-Levels,33,39,"['#######', '#. #  #', '#  $  #', '#. $#@#', '#  $  #', '#. #  #', '#######']","['######', '#    #', '# ## ##', '# . * ###', '## $ *  #', ' #  #  @#', ' ########']"
4733-c6a6e973-18d8-4b07-9e81-737cf6b3fe7b,difficult,6790956f96019241f9c4f66c,pretest,sokoban-compare,5,1,34264,15272.0,33482.0,Sokogen-990602-Levels,Sokogen-990602-Levels,19,6,"['######', '#@  .#', '#$$$ #', '#. # #', '#  . #', '######']","[' #####', '##   ###', '# .# $@#', '#  # # #', '# *  $.#', '#    ###', '######']"
2839-a3cd9207-4f4c-4db0-a0db-5d16fa3e57ac,difficult,6790956f96019241f9c4f669,pretest,sokoban-compare,7,0,24878,11094.0,24478.0,Microban,Sokogen-990602-Levels,41,6,"['#######', '#     #', '#@$$$ ##', '#  #...#', '##    ##', ' ######']","[' #####', '##   ###', '# .# $@#', '#  # # #', '# *  $.#', '#    ###', '######']"
0047-f873669a-075a-4f22-80d2-c33cd8217451,difficult,6790956f96019241f9c4f668,pretest,sokoban-compare,6,0,30407,18162.0,29826.0,Sokogen-990602-Levels,Sokogen-990602-Levels,19,17,"['######', '#@  .#', '#$$$ #', '#. # #', '#  . #', '######']","['#####', '#@  ###', '# $$$ #', '## ...#', '#   # #', '#     #', '#######']"
7209-f522767f-26aa-4a22-b50a-17f64304a083,difficult,6790956f96019241f9c4f666,pretest,sokoban-compare,8,1,42033,10881.0,41673.0,Sokogen-990602-Levels,Microban,17,41,"['#####', '#@  ###', '# $$$ #', '## ...#', '#   # #', '#     #', '#######']","['#######', '#     #', '#@$$$ ##', '#  #...#', '##    ##', ' ######']"
2839-a3cd9207-4f4c-4db0-a0db-5d16fa3e57ac,difficult,6790956f96019241f9c4f669,pretest,sokoban-compare,8,0,23590,11486.0,22631.0,Microban,Dimitri-and-Yorick,33,37,"['#######', '#. #  #', '#  $  #', '#. $#@#', '#  $  #', '#. #  #', '#######']","['######', '# @$.#', '# $$.#', '#  #.#', '#    #', '######']"
4733-c6a6e973-18d8-4b07-9e81-737cf6b3fe7b,difficult,6790956f96019241f9c4f66c,pretest,sokoban-compare,6,1,28139,12412.0,27570.0,Sokogen-990602-Levels,Microban,6,48,"[' #####', '##   ###', '# .# $@#', '#  # # #', '# *  $.#', '#    ###', '######']","['######', '#  @ #', '#  # ##', '# .#  ##', '# .$$$ #', '# .#   #', '####   #', '   #####']"
0047-f873669a-075a-4f22-80d2-c33cd8217451,difficult,6790956f96019241f9c4f668,pretest,sokoban-compare,7,0,27276,12332.0,26673.0,Microban,Microban,41,48,"['#######', '#     #', '#@$$$ ##', '#  #...#', '##    ##', ' ######']","['######', '#  @ #', '#  # ##', '# .#  ##', '# .$$$ #', '# .#   #', '####   #', '   #####']"
4733-c6a6e973-18d8-4b07-9e81-737cf6b3fe7b,difficult,6790956f96019241f9c4f66c,pretest,sokoban-compare,7,1,30724,13191.0,29707.0,Sokogen-990602-Levels,Sokogen-990602-Levels,17,39,"['#####', '#@  ###', '# $$$ #', '## ...#', '#   # #', '#     #', '#######']","['######', '#    #', '# ## ##', '# . * ###', '## $ *  #', ' #  #  @#', ' ########']"
0047-f873669a-075a-4f22-80d2-c33cd8217451,difficult,6790956f96019241f9c4f668,pretest,sokoban-compare,8,0,26620,13620.0,26063.0,Sokogen-990602-Levels,Microban,17,48,"['#####', '#@  ###', '# $$$ #', '## ...#', '#   # #', '#     #', '#######']","['######', '#  @ #', '#  # ##', '# .#  ##', '# .$$$ #', '# .#   #', '####   #', '   #####']"
4733-c6a6e973-18d8-4b07-9e81-737cf6b3fe7b,difficult,6790956f96019241f9c4f66c,pretest,sokoban-compare,8,0,32752,11026.0,31902.0,Sokogen-990602-Levels,Microban,17,41,"['#####', '#@  ###', '# $$$ #', '## ...#', '#   # #', '#     #', '#######']","['#######', '#     #', '#@$$$ ##', '#  #...#', '##    ##', ' ######']"
9390-86c56e18-f87b-46d4-9a5e-f44e363d8f6c,difficult,6790956f96019241f9c4f66b,pretest,sokoban-compare,1,1,37605,21285.0,35543.0,Sokogen-990602-Levels,Sokogen-990602-Levels,19,6,"['######', '#@  .#', '#$$$ #', '#. # #', '#  . #', '######']","[' #####', '##   ###', '# .# $@#', '#  # # #', '# *  $.#', '#    ###', '######']"
9390-86c56e18-f87b-46d4-9a5e-f44e363d8f6c,difficult,6790956f96019241f9c4f66b,pretest,sokoban-compare,2,1,30358,13340.0,29508.0,Dimitri-and-Yorick,Microban,37,41,"['######', '# @$.#', '# $$.#', '#  #.#', '#    #', '######']","['#######', '#     #', '#@$$$ ##', '#  #...#', '##    ##', ' ######']"
9390-86c56e18-f87b-46d4-9a5e-f44e363d8f6c,difficult,6790956f96019241f9c4f66b,pretest,sokoban-compare,3,0,30827,18996.0,29844.0,Dimitri-and-Yorick,Sokogen-990602-Levels,37,6,"['######', '# @$.#', '# $$.#', '#  #.#', '#    #', '######']","[' #####', '##   ###', '# .# $@#', '#  # # #', '# *  $.#', '#    ###', '######']"
4874-8b3ae495-d2ac-48be-9f34-6a6c65fb844f,difficult,6790956f96019241f9c4f66a,pretest,sokoban-compare,1,1,34062,14973.0,29230.0,Microban,Sokogen-990602-Levels,48,39,"['######', '#  @ #', '#  # ##', '# .#  ##', '# .$$$ #', '# .#   #', '####   #', '   #####']","['######', '#    #', '# ## ##', '# . * ###', '## $ *  #', ' #  #  @#', ' ########']"
9390-86c56e18-f87b-46d4-9a5e-f44e363d8f6c,difficult,6790956f96019241f9c4f66b,pretest,sokoban-compare,4,1,73325,61789.0,72765.0,Sokogen-990602-Levels,Microban,17,41,"['#####', '#@  ###', '# $$$ #', '## ...#', '#   # #', '#     #', '#######']","['#######', '#     #', '#@$$$ ##', '#  #...#', '##    ##', ' ######']"
4874-8b3ae495-d2ac-48be-9f34-6a6c65fb844f,difficult,6790956f96019241f9c4f66a,pretest,sokoban-compare,2,0,51356,16324.0,30517.0,Microban,Sokogen-990602-Levels,33,19,"['#######', '#. #  #', '#  $  #', '#. $#@#', '#  $  #', '#. #  #', '#######']","['######', '#@  .#', '#$$$ #', '#. # #', '#  . #', '######']"
9390-86c56e18-f87b-46d4-9a5e-f44e363d8f6c,difficult,6790956f96019241f9c4f66b,pretest,sokoban-compare,5,0,33742,12774.0,32742.0,Microban,Sokogen-990602-Levels,48,39,"['######', '#  @ #', '#  # ##', '# .#  ##', '# .$$$ #', '# .#   #', '####   #', '   #####']","['######', '#    #', '# ## ##', '# . * ###', '## $ *  #', ' #  #  @#', ' ########']"
4874-8b3ae495-d2ac-48be-9f34-6a6c65fb844f,difficult,6790956f96019241f9c4f66a,pretest,sokoban-compare,3,0,40662,12933.0,28788.0,Dimitri-and-Yorick,Sokogen-990602-Levels,37,6,"['######', '# @$.#', '# $$.#', '#  #.#', '#    #', '######']","[' #####', '##   ###', '# .# $@#', '#  # # #', '# *  $.#', '#    ###', '######']"
9390-86c56e18-f87b-46d4-9a5e-f44e363d8f6c,difficult,6790956f96019241f9c4f66b,pretest,sokoban-compare,6,1,25916,14452.0,25124.0,Microban,Microban,33,48,"['#######', '#. #  #', '#  $  #', '#. $#@#', '#  $  #', '#. #  #', '#######']","['######', '#  @ #', '#  # ##', '# .#  ##', '# .$$$ #', '# .#   #', '####   #', '   #####']"
4874-8b3ae495-d2ac-48be-9f34-6a6c65fb844f,difficult,6790956f96019241f9c4f66a,pretest,sokoban-compare,4,1,44122,11266.0,25650.0,Microban,Microban,33,41,"['#######', '#. #  #', '#  $  #', '#. $#@#', '#  $  #', '#. #  #', '#######']","['#######', '#     #', '#@$$$ ##', '#  #...#', '##    ##', ' ######']"
9390-86c56e18-f87b-46d4-9a5e-f44e363d8f6c,difficult,6790956f96019241f9c4f66b,pretest,sokoban-compare,7,1,38693,21734.0,38013.0,Sokogen-990602-Levels,Sokogen-990602-Levels,19,39,"['######', '#@  .#', '#$$$ #', '#. # #', '#  . #', '######']","['######', '#    #', '# ## ##', '# . * ###', '## $ *  #', ' #  #  @#', ' ########']"
4874-8b3ae495-d2ac-48be-9f34-6a6c65fb844f,difficult,6790956f96019241f9c4f66a,pretest,sokoban-compare,5,0,23904,11316.0,23220.0,Sokogen-990602-Levels,Microban,17,48,"['#####', '#@  ###', '# $$$ #', '## ...#', '#   # #', '#     #', '#######']","['######', '#  @ #', '#  # ##', '# .#  ##', '# .$$$ #', '# .#   #', '####   #', '   #####']"
9390-86c56e18-f87b-46d4-9a5e-f44e363d8f6c,difficult,6790956f96019241f9c4f66b,pretest,sokoban-compare,8,1,28671,15082.0,26551.0,Microban,Sokogen-990602-Levels,33,17,"['#######', '#. #  #', '#  $  #', '#. $#@#', '#  $  #', '#. #  #', '#######']","['#####', '#@  ###', '# $$$ #', '## ...#', '#   # #', '#     #', '#######']"
4874-8b3ae495-d2ac-48be-9f34-6a6c65fb844f,difficult,6790956f96019241f9c4f66a,pretest,sokoban-compare,6,0,24813,11474.0,24058.0,Dimitri-and-Yorick,Microban,37,41,"['######', '# @$.#', '# $$.#', '#  #.#', '#    #', '######']","['#######', '#     #', '#@$$$ ##', '#  #...#', '##    ##', ' ######']"
4874-8b3ae495-d2ac-48be-9f34-6a6c65fb844f,difficult,6790956f96019241f9c4f66a,pretest,sokoban-compare,7,1,28028,11668.0,26806.0,Sokogen-990602-Levels,Sokogen-990602-Levels,17,6,"['#####', '#@  ###', '# $$$ #', '## ...#', '#   # #', '#     #', '#######']","[' #####', '##   ###', '# .# $@#', '#  # # #', '# *  $.#', '#    ###', '######']"
4874-8b3ae495-d2ac-48be-9f34-6a6c65fb844f,difficult,6790956f96019241f9c4f66a,pretest,sokoban-compare,8,0,23252,10877.0,22436.0,Sokogen-990602-Levels,Sokogen-990602-Levels,19,39,"['######', '#@  .#', '#$$$ #', '#. # #', '#  . #', '######']","['######', '#    #', '# ## ##', '# . * ###', '## $ *  #', ' #  #  @#', ' ########']"
8548-f432b403-c1b9-4c23-b610-38229bfe78ab,difficult,6790956f96019241f9c4f66e,pretest,sokoban-compare,1,0,93552,35665.0,91899.0,Sokogen-990602-Levels,Microban,19,41,"['######', '#@  .#', '#$$$ #', '#. # #', '#  . #', '######']","['#######', '#     #', '#@$$$ ##', '#  #...#', '##    ##', ' ######']"
8548-f432b403-c1b9-4c23-b610-38229bfe78ab,difficult,6790956f96019241f9c4f66e,pretest,sokoban-compare,3,1,91344,22007.0,90735.0,Sokogen-990602-Levels,Dimitri-and-Yorick,17,37,"['#####', '#@  ###', '# $$$ #', '## ...#', '#   # #', '#     #', '#######']","['######', '# @$.#', '# $$.#', '#  #.#', '#    #', '######']"
8548-f432b403-c1b9-4c23-b610-38229bfe78ab,difficult,6790956f96019241f9c4f66e,pretest,sokoban-compare,4,1,276967,57255.0,262092.0,Dimitri-and-Yorick,Microban,37,41,"['######', '# @$.#', '# $$.#', '#  #.#', '#    #', '######']","['#######', '#     #', '#@$$$ ##', '#  #...#', '##    ##', ' ######']"
8548-f432b403-c1b9-4c23-b610-38229bfe78ab,difficult,6790956f96019241f9c4f66e,pretest,sokoban-compare,5,0,121250,70772.0,120306.0,Microban,Sokogen-990602-Levels,33,39,"['#######', '#. #  #', '#  $  #', '#. $#@#', '#  $  #', '#. #  #', '#######']","['######', '#    #', '# ## ##', '# . * ###', '## $ *  #', ' #  #  @#', ' ########']"
8548-f432b403-c1b9-4c23-b610-38229bfe78ab,difficult,6790956f96019241f9c4f66e,pretest,sokoban-compare,6,1,32214,10889.0,31519.0,Microban,Sokogen-990602-Levels,48,39,"['######', '#  @ #', '#  # ##', '# .#  ##', '# .$$$ #', '# .#   #', '####   #', '   #####']","['######', '#    #', '# ## ##', '# . * ###', '## $ *  #', ' #  #  @#', ' ########']"
8548-f432b403-c1b9-4c23-b610-38229bfe78ab,difficult,6790956f96019241f9c4f66e,pretest,sokoban-compare,7,0,98993,70624.0,98193.0,Sokogen-990602-Levels,Microban,19,48,"['######', '#@  .#', '#$$$ #', '#. # #', '#  . #', '######']","['######', '#  @ #', '#  # ##', '# .#  ##', '# .$$$ #', '# .#   #', '####   #', '   #####']"
8548-f432b403-c1b9-4c23-b610-38229bfe78ab,difficult,6790956f96019241f9c4f66e,pretest,sokoban-compare,8,0,82534,50385.0,80786.0,Microban,Sokogen-990602-Levels,33,6,"['#######', '#. #  #', '#  $  #', '#. $#@#', '#  $  #', '#. #  #', '#######']","[' #####', '##   ###', '# .# $@#', '#  # # #', '# *  $.#', '#    ###', '######']"
7209-f522767f-26aa-4a22-b50a-17f64304a083,difficult,6790956f96019241f9c4f666,posttest,sokoban-compare,1,0,28132,11484.0,23822.0,Sokogen-990602-Levels,Microban,14,43,"['######', '#  . #', '# #. ##', '#  .  #', '# $$$ #', '#  # @#', '#######']","['     ####', '     # @#', '     #  #', '###### .#', '#   $  .#', '#  $$# .#', '#    ####', '###  #', '  ####']"
7209-f522767f-26aa-4a22-b50a-17f64304a083,difficult,6790956f96019241f9c4f666,posttest,sokoban-compare,2,0,28267,12348.0,27819.0,Sokogen-990602-Levels,Microban,40,43,"['######', '#    ###', '# @#$  #', '# *.$  #', '# . #  #', '########']","['     ####', '     # @#', '     #  #', '###### .#', '#   $  .#', '#  $$# .#', '#    ####', '###  #', '  ####']"
7209-f522767f-26aa-4a22-b50a-17f64304a083,difficult,6790956f96019241f9c4f666,posttest,sokoban-compare,3,1,24082,10581.0,23314.0,Sokogen-990602-Levels,Sokogen-990602-Levels,14,46,"['######', '#  . #', '# #. ##', '#  .  #', '# $$$ #', '#  # @#', '#######']","['#######', '##  ###', '## .$ #', '# $$  #', '# #. .#', '#@  ###', '#######']"
7209-f522767f-26aa-4a22-b50a-17f64304a083,difficult,6790956f96019241f9c4f666,posttest,sokoban-compare,4,1,23358,10954.0,22950.0,Microban,Sokogen-990602-Levels,26,46,"[' #####', ' # @ #', ' #   #', '###$ #', '# ...#', '# $$ #', '###  #', '  ####']","['#######', '##  ###', '## .$ #', '# $$  #', '# #. .#', '#@  ###', '#######']"
7209-f522767f-26aa-4a22-b50a-17f64304a083,difficult,6790956f96019241f9c4f666,posttest,sokoban-compare,5,0,24214,11933.0,23601.0,Sokogen-990602-Levels,Microban,41,17,"['######', '#    #', '# ## ##', '# .$@.###', '## $$   #', ' #  #.  #', ' ########']","['#####', '# @ #', '#...#', '#$$$##', '#    #', '#    #', '######']"
4733-c6a6e973-18d8-4b07-9e81-737cf6b3fe7b,difficult,6790956f96019241f9c4f66c,posttest,sokoban-compare,1,0,29655,17909.0,29215.0,Microban,Sokogen-990602-Levels,26,40,"[' #####', ' # @ #', ' #   #', '###$ #', '# ...#', '# $$ #', '###  #', '  ####']","['######', '#    ###', '# @#$  #', '# *.$  #', '# . #  #', '########']"
7209-f522767f-26aa-4a22-b50a-17f64304a083,difficult,6790956f96019241f9c4f666,posttest,sokoban-compare,6,1,27557,11731.0,22611.0,Sokogen-990602-Levels,Microcosmos,41,28,"['######', '#    #', '# ## ##', '# .$@.###', '## $$   #', ' #  #.  #', ' ########']","['     ####', '    ##  #', '   ## . #', '#### $  #', '# $ $.@##', '#  .  ##', '#######']"
7209-f522767f-26aa-4a22-b50a-17f64304a083,difficult,6790956f96019241f9c4f666,posttest,sokoban-compare,7,1,21496,10673.0,21046.0,Microban,Sokogen-990602-Levels,17,40,"['#####', '# @ #', '#...#', '#$$$##', '#    #', '#    #', '######']","['######', '#    ###', '# @#$  #', '# *.$  #', '# . #  #', '########']"
4733-c6a6e973-18d8-4b07-9e81-737cf6b3fe7b,difficult,6790956f96019241f9c4f66c,posttest,sokoban-compare,2,0,31326,19255.0,30884.0,Sokogen-990602-Levels,Sokogen-990602-Levels,41,14,"['######', '#    #', '# ## ##', '# .$@.###', '## $$   #', ' #  #.  #', ' ########']","['######', '#  . #', '# #. ##', '#  .  #', '# $$$ #', '#  # @#', '#######']"
7209-f522767f-26aa-4a22-b50a-17f64304a083,difficult,6790956f96019241f9c4f666,posttest,sokoban-compare,8,1,23793,10828.0,23180.0,Microban,Microcosmos,26,28,"[' #####', ' # @ #', ' #   #', '###$ #', '# ...#', '# $$ #', '###  #', '  ####']","['     ####', '    ##  #', '   ## . #', '#### $  #', '# $ $.@##', '#  .  ##', '#######']"
4733-c6a6e973-18d8-4b07-9e81-737cf6b3fe7b,difficult,6790956f96019241f9c4f66c,posttest,sokoban-compare,3,1,25065,13424.0,24594.0,Microban,Microcosmos,17,28,"['#####', '# @ #', '#...#', '#$$$##', '#    #', '#    #', '######']","['     ####', '    ##  #', '   ## . #', '#### $  #', '# $ $.@##', '#  .  ##', '#######']"
4733-c6a6e973-18d8-4b07-9e81-737cf6b3fe7b,difficult,6790956f96019241f9c4f66c,posttest,sokoban-compare,4,0,24699,12214.0,23715.0,Microcosmos,Sokogen-990602-Levels,28,40,"['     ####', '    ##  #', '   ## . #', '#### $  #', '# $ $.@##', '#  .  ##', '#######']","['######', '#    ###', '# @#$  #', '# *.$  #', '# . #  #', '########']"
4733-c6a6e973-18d8-4b07-9e81-737cf6b3fe7b,difficult,6790956f96019241f9c4f66c,posttest,sokoban-compare,5,0,26074,13025.0,25655.0,Sokogen-990602-Levels,Microban,41,43,"['######', '#    #', '# ## ##', '# .$@.###', '## $$   #', ' #  #.  #', ' ########']","['     ####', '     # @#', '     #  #', '###### .#', '#   $  .#', '#  $$# .#', '#    ####', '###  #', '  ####']"
4733-c6a6e973-18d8-4b07-9e81-737cf6b3fe7b,difficult,6790956f96019241f9c4f66c,posttest,sokoban-compare,6,1,22883,11781.0,22454.0,Microban,Sokogen-990602-Levels,17,46,"['#####', '# @ #', '#...#', '#$$$##', '#    #', '#    #', '######']","['#######', '##  ###', '## .$ #', '# $$  #', '# #. .#', '#@  ###', '#######']"
4733-c6a6e973-18d8-4b07-9e81-737cf6b3fe7b,difficult,6790956f96019241f9c4f66c,posttest,sokoban-compare,7,1,24878,12789.0,23955.0,Microban,Microban,26,43,"[' #####', ' # @ #', ' #   #', '###$ #', '# ...#', '# $$ #', '###  #', '  ####']","['     ####', '     # @#', '     #  #', '###### .#', '#   $  .#', '#  $$# .#', '#    ####', '###  #', '  ####']"
6110-7c3fd621-28f8-4d65-b650-9c8fcc6290c8,difficult,6790956f96019241f9c4f667,posttest,sokoban-compare,1,1,27514,13009.0,26214.0,Sokogen-990602-Levels,Microban,41,43,"['######', '#    #', '# ## ##', '# .$@.###', '## $$   #', ' #  #.  #', ' ########']","['     ####', '     # @#', '     #  #', '###### .#', '#   $  .#', '#  $$# .#', '#    ####', '###  #', '  ####']"
4733-c6a6e973-18d8-4b07-9e81-737cf6b3fe7b,difficult,6790956f96019241f9c4f66c,posttest,sokoban-compare,8,1,23037,11089.0,22504.0,Sokogen-990602-Levels,Sokogen-990602-Levels,14,46,"['######', '#  . #', '# #. ##', '#  .  #', '# $$$ #', '#  # @#', '#######']","['#######', '##  ###', '## .$ #', '# $$  #', '# #. .#', '#@  ###', '#######']"
6110-7c3fd621-28f8-4d65-b650-9c8fcc6290c8,difficult,6790956f96019241f9c4f667,posttest,sokoban-compare,2,0,23754,11393.0,22506.0,Microban,Microban,26,43,"[' #####', ' # @ #', ' #   #', '###$ #', '# ...#', '# $$ #', '###  #', '  ####']","['     ####', '     # @#', '     #  #', '###### .#', '#   $  .#', '#  $$# .#', '#    ####', '###  #', '  ####']"
6110-7c3fd621-28f8-4d65-b650-9c8fcc6290c8,difficult,6790956f96019241f9c4f667,posttest,sokoban-compare,3,0,28897,11908.0,27511.0,Microban,Sokogen-990602-Levels,26,46,"[' #####', ' # @ #', ' #   #', '###$ #', '# ...#', '# $$ #', '###  #', '  ####']","['#######', '##  ###', '## .$ #', '# $$  #', '# #. .#', '#@  ###', '#######']"
6110-7c3fd621-28f8-4d65-b650-9c8fcc6290c8,difficult,6790956f96019241f9c4f667,posttest,sokoban-compare,4,0,29374,15937.0,28297.0,Microcosmos,Sokogen-990602-Levels,28,40,"['     ####', '    ##  #', '   ## . #', '#### $  #', '# $ $.@##', '#  .  ##', '#######']","['######', '#    ###', '# @#$  #', '# *.$  #', '# . #  #', '########']"
6110-7c3fd621-28f8-4d65-b650-9c8fcc6290c8,difficult,6790956f96019241f9c4f667,posttest,sokoban-compare,5,1,24167,11979.0,23238.0,Sokogen-990602-Levels,Sokogen-990602-Levels,41,14,"['######', '#    #', '# ## ##', '# .$@.###', '## $$   #', ' #  #.  #', ' ########']","['######', '#  . #', '# #. ##', '#  .  #', '# $$$ #', '#  # @#', '#######']"
6110-7c3fd621-28f8-4d65-b650-9c8fcc6290c8,difficult,6790956f96019241f9c4f667,posttest,sokoban-compare,6,1,24161,11001.0,22855.0,Sokogen-990602-Levels,Sokogen-990602-Levels,14,40,"['######', '#  . #', '# #. ##', '#  .  #', '# $$$ #', '#  # @#', '#######']","['######', '#    ###', '# @#$  #', '# *.$  #', '# . #  #', '########']"
0047-f873669a-075a-4f22-80d2-c33cd8217451,difficult,6790956f96019241f9c4f668,posttest,sokoban-compare,1,0,31018,17280.0,29770.0,Sokogen-990602-Levels,Microban,41,17,"['######', '#    #', '# ## ##', '# .$@.###', '## $$   #', ' #  #.  #', ' ########']","['#####', '# @ #', '#...#', '#$$$##', '#    #', '#    #', '######']"
6110-7c3fd621-28f8-4d65-b650-9c8fcc6290c8,difficult,6790956f96019241f9c4f667,posttest,sokoban-compare,7,1,34729,20873.0,33444.0,Microban,Microcosmos,17,28,"['#####', '# @ #', '#...#', '#$$$##', '#    #', '#    #', '######']","['     ####', '    ##  #', '   ## . #', '#### $  #', '# $ $.@##', '#  .  ##', '#######']"
0047-f873669a-075a-4f22-80d2-c33cd8217451,difficult,6790956f96019241f9c4f668,posttest,sokoban-compare,2,0,27404,12596.0,26096.0,Microban,Sokogen-990602-Levels,43,46,"['     ####', '     # @#', '     #  #', '###### .#', '#   $  .#', '#  $$# .#', '#    ####', '###  #', '  ####']","['#######', '##  ###', '## .$ #', '# $$  #', '# #. .#', '#@  ###', '#######']"
6110-7c3fd621-28f8-4d65-b650-9c8fcc6290c8,difficult,6790956f96019241f9c4f667,posttest,sokoban-compare,8,0,24949,11798.0,23696.0,Microban,Sokogen-990602-Levels,17,46,"['#####', '# @ #', '#...#', '#$$$##', '#    #', '#    #', '######']","['#######', '##  ###', '## .$ #', '# $$  #', '# #. .#', '#@  ###', '#######']"
0047-f873669a-075a-4f22-80d2-c33cd8217451,difficult,6790956f96019241f9c4f668,posttest,sokoban-compare,3,0,27245,12189.0,26045.0,Microban,Sokogen-990602-Levels,17,14,"['#####', '# @ #', '#...#', '#$$$##', '#    #', '#    #', '######']","['######', '#  . #', '# #. ##', '#  .  #', '# $$$ #', '#  # @#', '#######']"
0047-f873669a-075a-4f22-80d2-c33cd8217451,difficult,6790956f96019241f9c4f668,posttest,sokoban-compare,4,1,31909,12284.0,24236.0,Microban,Sokogen-990602-Levels,26,40,"[' #####', ' # @ #', ' #   #', '###$ #', '# ...#', '# $$ #', '###  #', '  ####']","['######', '#    ###', '# @#$  #', '# *.$  #', '# . #  #', '########']"
0047-f873669a-075a-4f22-80d2-c33cd8217451,difficult,6790956f96019241f9c4f668,posttest,sokoban-compare,5,0,25413,11644.0,24159.0,Sokogen-990602-Levels,Sokogen-990602-Levels,41,40,"['######', '#    #', '# ## ##', '# .$@.###', '## $$   #', ' #  #.  #', ' ########']","['######', '#    ###', '# @#$  #', '# *.$  #', '# . #  #', '########']"
0047-f873669a-075a-4f22-80d2-c33cd8217451,difficult,6790956f96019241f9c4f668,posttest,sokoban-compare,6,1,28517,13225.0,25701.0,Microcosmos,Sokogen-990602-Levels,28,46,"['     ####', '    ##  #', '   ## . #', '#### $  #', '# $ $.@##', '#  .  ##', '#######']","['#######', '##  ###', '## .$ #', '# $$  #', '# #. .#', '#@  ###', '#######']"
0047-f873669a-075a-4f22-80d2-c33cd8217451,difficult,6790956f96019241f9c4f668,posttest,sokoban-compare,7,1,25114,11762.0,23874.0,Sokogen-990602-Levels,Microban,14,43,"['######', '#  . #', '# #. ##', '#  .  #', '# $$$ #', '#  # @#', '#######']","['     ####', '     # @#', '     #  #', '###### .#', '#   $  .#', '#  $$# .#', '#    ####', '###  #', '  ####']"
0047-f873669a-075a-4f22-80d2-c33cd8217451,difficult,6790956f96019241f9c4f668,posttest,sokoban-compare,8,0,24757,12045.0,23282.0,Microban,Microcosmos,26,28,"[' #####', ' # @ #', ' #   #', '###$ #', '# ...#', '# $$ #', '###  #', '  ####']","['     ####', '    ##  #', '   ## . #', '#### $  #', '# $ $.@##', '#  .  ##', '#######']"
2839-a3cd9207-4f4c-4db0-a0db-5d16fa3e57ac,difficult,6790956f96019241f9c4f669,posttest,sokoban-compare,1,0,23782,11622.0,23156.0,Sokogen-990602-Levels,Microcosmos,41,28,"['######', '#    #', '# ## ##', '# .$@.###', '## $$   #', ' #  #.  #', ' ########']","['     ####', '    ##  #', '   ## . #', '#### $  #', '# $ $.@##', '#  .  ##', '#######']"
2839-a3cd9207-4f4c-4db0-a0db-5d16fa3e57ac,difficult,6790956f96019241f9c4f669,posttest,sokoban-compare,2,1,23110,11326.0,22641.0,Microban,Sokogen-990602-Levels,26,40,"[' #####', ' # @ #', ' #   #', '###$ #', '# ...#', '# $$ #', '###  #', '  ####']","['######', '#    ###', '# @#$  #', '# *.$  #', '# . #  #', '########']"
2839-a3cd9207-4f4c-4db0-a0db-5d16fa3e57ac,difficult,6790956f96019241f9c4f669,posttest,sokoban-compare,3,1,27039,11540.0,25527.0,Microcosmos,Microban,28,43,"['     ####', '    ##  #', '   ## . #', '#### $  #', '# $ $.@##', '#  .  ##', '#######']","['     ####', '     # @#', '     #  #', '###### .#', '#   $  .#', '#  $$# .#', '#    ####', '###  #', '  ####']"
2839-a3cd9207-4f4c-4db0-a0db-5d16fa3e57ac,difficult,6790956f96019241f9c4f669,posttest,sokoban-compare,4,1,27281,16249.0,26841.0,Microban,Sokogen-990602-Levels,17,46,"['#####', '# @ #', '#...#', '#$$$##', '#    #', '#    #', '######']","['#######', '##  ###', '## .$ #', '# $$  #', '# #. .#', '#@  ###', '#######']"
2839-a3cd9207-4f4c-4db0-a0db-5d16fa3e57ac,difficult,6790956f96019241f9c4f669,posttest,sokoban-compare,5,1,22686,11118.0,22262.0,Sokogen-990602-Levels,Microban,14,43,"['######', '#  . #', '# #. ##', '#  .  #', '# $$$ #', '#  # @#', '#######']","['     ####', '     # @#', '     #  #', '###### .#', '#   $  .#', '#  $$# .#', '#    ####', '###  #', '  ####']"
2839-a3cd9207-4f4c-4db0-a0db-5d16fa3e57ac,difficult,6790956f96019241f9c4f669,posttest,sokoban-compare,6,1,22282,10399.0,21630.0,Sokogen-990602-Levels,Sokogen-990602-Levels,14,40,"['######', '#  . #', '# #. ##', '#  .  #', '# $$$ #', '#  # @#', '#######']","['######', '#    ###', '# @#$  #', '# *.$  #', '# . #  #', '########']"
2839-a3cd9207-4f4c-4db0-a0db-5d16fa3e57ac,difficult,6790956f96019241f9c4f669,posttest,sokoban-compare,7,1,22054,11086.0,21582.0,Sokogen-990602-Levels,Sokogen-990602-Levels,41,46,"['######', '#    #', '# ## ##', '# .$@.###', '## $$   #', ' #  #.  #', ' ########']","['#######', '##  ###', '## .$ #', '# $$  #', '# #. .#', '#@  ###', '#######']"
2839-a3cd9207-4f4c-4db0-a0db-5d16fa3e57ac,difficult,6790956f96019241f9c4f669,posttest,sokoban-compare,8,1,22063,10573.0,21312.0,Microban,Microban,26,17,"[' #####', ' # @ #', ' #   #', '###$ #', '# ...#', '# $$ #', '###  #', '  ####']","['#####', '# @ #', '#...#', '#$$$##', '#    #', '#    #', '######']"
9390-86c56e18-f87b-46d4-9a5e-f44e363d8f6c,difficult,6790956f96019241f9c4f66b,posttest,sokoban-compare,1,1,27229,11486.0,24620.0,Sokogen-990602-Levels,Sokogen-990602-Levels,41,46,"['######', '#    #', '# ## ##', '# .$@.###', '## $$   #', ' #  #.  #', ' ########']","['#######', '##  ###', '## .$ #', '# $$  #', '# #. .#', '#@  ###', '#######']"
4874-8b3ae495-d2ac-48be-9f34-6a6c65fb844f,difficult,6790956f96019241f9c4f66a,posttest,sokoban-compare,1,1,24750,11606.0,23350.0,Microban,Microban,17,43,"['#####', '# @ #', '#...#', '#$$$##', '#    #', '#    #', '######']","['     ####', '     # @#', '     #  #', '###### .#', '#   $  .#', '#  $$# .#', '#    ####', '###  #', '  ####']"
4874-8b3ae495-d2ac-48be-9f34-6a6c65fb844f,difficult,6790956f96019241f9c4f66a,posttest,sokoban-compare,2,0,23868,11717.0,23037.0,Sokogen-990602-Levels,Microcosmos,41,28,"['######', '#    #', '# ## ##', '# .$@.###', '## $$   #', ' #  #.  #', ' ########']","['     ####', '    ##  #', '   ## . #', '#### $  #', '# $ $.@##', '#  .  ##', '#######']"
9390-86c56e18-f87b-46d4-9a5e-f44e363d8f6c,difficult,6790956f96019241f9c4f66b,posttest,sokoban-compare,2,1,49758,30598.0,48358.0,Sokogen-990602-Levels,Microban,40,43,"['######', '#    ###', '# @#$  #', '# *.$  #', '# . #  #', '########']","['     ####', '     # @#', '     #  #', '###### .#', '#   $  .#', '#  $$# .#', '#    ####', '###  #', '  ####']"
4874-8b3ae495-d2ac-48be-9f34-6a6c65fb844f,difficult,6790956f96019241f9c4f66a,posttest,sokoban-compare,3,0,23700,11525.0,22972.0,Microcosmos,Sokogen-990602-Levels,28,46,"['     ####', '    ##  #', '   ## . #', '#### $  #', '# $ $.@##', '#  .  ##', '#######']","['#######', '##  ###', '## .$ #', '# $$  #', '# #. .#', '#@  ###', '#######']"
9390-86c56e18-f87b-46d4-9a5e-f44e363d8f6c,difficult,6790956f96019241f9c4f66b,posttest,sokoban-compare,3,1,28827,14446.0,27775.0,Microban,Sokogen-990602-Levels,26,41,"[' #####', ' # @ #', ' #   #', '###$ #', '# ...#', '# $$ #', '###  #', '  ####']","['######', '#    #', '# ## ##', '# .$@.###', '## $$   #', ' #  #.  #', ' ########']"
4874-8b3ae495-d2ac-48be-9f34-6a6c65fb844f,difficult,6790956f96019241f9c4f66a,posttest,sokoban-compare,4,1,34210,11255.0,30147.0,Microban,Sokogen-990602-Levels,43,46,"['     ####', '     # @#', '     #  #', '###### .#', '#   $  .#', '#  $$# .#', '#    ####', '###  #', '  ####']","['#######', '##  ###', '## .$ #', '# $$  #', '# #. .#', '#@  ###', '#######']"
9390-86c56e18-f87b-46d4-9a5e-f44e363d8f6c,difficult,6790956f96019241f9c4f66b,posttest,sokoban-compare,4,0,30654,12590.0,29150.0,Microban,Sokogen-990602-Levels,17,46,"['#####', '# @ #', '#...#', '#$$$##', '#    #', '#    #', '######']","['#######', '##  ###', '## .$ #', '# $$  #', '# #. .#', '#@  ###', '#######']"
4874-8b3ae495-d2ac-48be-9f34-6a6c65fb844f,difficult,6790956f96019241f9c4f66a,posttest,sokoban-compare,5,1,23785,11152.0,22981.0,Microban,Sokogen-990602-Levels,26,40,"[' #####', ' # @ #', ' #   #', '###$ #', '# ...#', '# $$ #', '###  #', '  ####']","['######', '#    ###', '# @#$  #', '# *.$  #', '# . #  #', '########']"
9390-86c56e18-f87b-46d4-9a5e-f44e363d8f6c,difficult,6790956f96019241f9c4f66b,posttest,sokoban-compare,5,1,31445,15647.0,27734.0,Microban,Microcosmos,26,28,"[' #####', ' # @ #', ' #   #', '###$ #', '# ...#', '# $$ #', '###  #', '  ####']","['     ####', '    ##  #', '   ## . #', '#### $  #', '# $ $.@##', '#  .  ##', '#######']"
4874-8b3ae495-d2ac-48be-9f34-6a6c65fb844f,difficult,6790956f96019241f9c4f66a,posttest,sokoban-compare,6,1,26268,11346.0,22229.0,Sokogen-990602-Levels,Sokogen-990602-Levels,41,14,"['######', '#    #', '# ## ##', '# .$@.###', '## $$   #', ' #  #.  #', ' ########']","['######', '#  . #', '# #. ##', '#  .  #', '# $$$ #', '#  # @#', '#######']"
9390-86c56e18-f87b-46d4-9a5e-f44e363d8f6c,difficult,6790956f96019241f9c4f66b,posttest,sokoban-compare,6,1,28900,14796.0,26972.0,Microban,Sokogen-990602-Levels,17,40,"['#####', '# @ #', '#...#', '#$$$##', '#    #', '#    #', '######']","['######', '#    ###', '# @#$  #', '# *.$  #', '# . #  #', '########']"
4874-8b3ae495-d2ac-48be-9f34-6a6c65fb844f,difficult,6790956f96019241f9c4f66a,posttest,sokoban-compare,7,1,23636,11228.0,22892.0,Microban,Microban,26,17,"[' #####', ' # @ #', ' #   #', '###$ #', '# ...#', '# $$ #', '###  #', '  ####']","['#####', '# @ #', '#...#', '#$$$##', '#    #', '#    #', '######']"
9390-86c56e18-f87b-46d4-9a5e-f44e363d8f6c,difficult,6790956f96019241f9c4f66b,posttest,sokoban-compare,7,0,36869,12685.0,35511.0,Sokogen-990602-Levels,Microcosmos,14,28,"['######', '#  . #', '# #. ##', '#  .  #', '# $$$ #', '#  # @#', '#######']","['     ####', '    ##  #', '   ## . #', '#### $  #', '# $ $.@##', '#  .  ##', '#######']"
4874-8b3ae495-d2ac-48be-9f34-6a6c65fb844f,difficult,6790956f96019241f9c4f66a,posttest,sokoban-compare,8,0,33547,11490.0,23643.0,Sokogen-990602-Levels,Sokogen-990602-Levels,14,40,"['######', '#  . #', '# #. ##', '#  .  #', '# $$$ #', '#  # @#', '#######']","['######', '#    ###', '# @#$  #', '# *.$  #', '# . #  #', '########']"
9390-86c56e18-f87b-46d4-9a5e-f44e363d8f6c,difficult,6790956f96019241f9c4f66b,posttest,sokoban-compare,8,1,43342,17310.0,36230.0,Sokogen-990602-Levels,Microban,14,43,"['######', '#  . #', '# #. ##', '#  .  #', '# $$$ #', '#  # @#', '#######']","['     ####', '     # @#', '     #  #', '###### .#', '#   $  .#', '#  $$# .#', '#    ####', '###  #', '  ####']"
8548-f432b403-c1b9-4c23-b610-38229bfe78ab,difficult,6790956f96019241f9c4f66e,posttest,sokoban-compare,2,0,43283,29947.0,42315.0,Microban,Sokogen-990602-Levels,26,14,"[' #####', ' # @ #', ' #   #', '###$ #', '# ...#', '# $$ #', '###  #', '  ####']","['######', '#  . #', '# #. ##', '#  .  #', '# $$$ #', '#  # @#', '#######']"
8548-f432b403-c1b9-4c23-b610-38229bfe78ab,difficult,6790956f96019241f9c4f66e,posttest,sokoban-compare,3,1,36046,24668.0,35285.0,Microban,Sokogen-990602-Levels,43,46,"['     ####', '     # @#', '     #  #', '###### .#', '#   $  .#', '#  $$# .#', '#    ####', '###  #', '  ####']","['#######', '##  ###', '## .$ #', '# $$  #', '# #. .#', '#@  ###', '#######']"
8548-f432b403-c1b9-4c23-b610-38229bfe78ab,difficult,6790956f96019241f9c4f66e,posttest,sokoban-compare,4,0,32220,13544.0,30838.0,Microcosmos,Sokogen-990602-Levels,28,46,"['     ####', '    ##  #', '   ## . #', '#### $  #', '# $ $.@##', '#  .  ##', '#######']","['#######', '##  ###', '## .$ #', '# $$  #', '# #. .#', '#@  ###', '#######']"
8548-f432b403-c1b9-4c23-b610-38229bfe78ab,difficult,6790956f96019241f9c4f66e,posttest,sokoban-compare,5,0,64535,22207.0,63535.0,Sokogen-990602-Levels,Microban,41,43,"['######', '#    #', '# ## ##', '# .$@.###', '## $$   #', ' #  #.  #', ' ########']","['     ####', '     # @#', '     #  #', '###### .#', '#   $  .#', '#  $$# .#', '#    ####', '###  #', '  ####']"
8548-f432b403-c1b9-4c23-b610-38229bfe78ab,difficult,6790956f96019241f9c4f66e,posttest,sokoban-compare,6,0,28204,13801.0,27362.0,Sokogen-990602-Levels,Microban,41,17,"['######', '#    #', '# ## ##', '# .$@.###', '## $$   #', ' #  #.  #', ' ########']","['#####', '# @ #', '#...#', '#$$$##', '#    #', '#    #', '######']"
8548-f432b403-c1b9-4c23-b610-38229bfe78ab,difficult,6790956f96019241f9c4f66e,posttest,sokoban-compare,7,1,77988,56705.0,76093.0,Microban,Microcosmos,26,28,"[' #####', ' # @ #', ' #   #', '###$ #', '# ...#', '# $$ #', '###  #', '  ####']","['     ####', '    ##  #', '   ## . #', '#### $  #', '# $ $.@##', '#  .  ##', '#######']"
8548-f432b403-c1b9-4c23-b610-38229bfe78ab,difficult,6790956f96019241f9c4f66e,posttest,sokoban-compare,8,1,46582,33247.0,45640.0,Microban,Sokogen-990602-Levels,17,40,"['#####', '# @ #', '#...#', '#$$$##', '#    #', '#    #', '######']","['######', '#    ###', '# @#$  #', '# *.$  #', '# . #  #', '########']"
8941-a75295a1-0952-400a-98d3-689ad17d5fd6,enjoyable,6790956f96019241f9c4f677,pretest,sokoban-compare,1,1,25105,13010.0,24405.0,Sokogen-990602-Levels,Microban,6,48,"[' #####', '##   ###', '# .# $@#', '#  # # #', '# *  $.#', '#    ###', '######']","['######', '#  @ #', '#  # ##', '# .#  ##', '# .$$$ #', '# .#   #', '####   #', '   #####']"
8941-a75295a1-0952-400a-98d3-689ad17d5fd6,enjoyable,6790956f96019241f9c4f677,pretest,sokoban-compare,2,0,23569,11626.0,23043.0,Sokogen-990602-Levels,Sokogen-990602-Levels,19,39,"['######', '#@  .#', '#$$$ #', '#. # #', '#  . #', '######']","['######', '#    #', '# ## ##', '# . * ###', '## $ *  #', ' #  #  @#', ' ########']"
8941-a75295a1-0952-400a-98d3-689ad17d5fd6,enjoyable,6790956f96019241f9c4f677,pretest,sokoban-compare,3,0,23459,12200.0,22995.0,Microban,Sokogen-990602-Levels,33,19,"['#######', '#. #  #', '#  $  #', '#. $#@#', '#  $  #', '#. #  #', '#######']","['######', '#@  .#', '#$$$ #', '#. # #', '#  . #', '######']"
8941-a75295a1-0952-400a-98d3-689ad17d5fd6,enjoyable,6790956f96019241f9c4f677,pretest,sokoban-compare,4,1,23121,10939.0,22637.0,Microban,Sokogen-990602-Levels,33,17,"['#######', '#. #  #', '#  $  #', '#. $#@#', '#  $  #', '#. #  #', '#######']","['#####', '#@  ###', '# $$$ #', '## ...#', '#   # #', '#     #', '#######']"
9875-77c31433-07e1-4aef-a4e5-043f15ecb034,difficult,6790956f96019241f9c4f66f,pretest,sokoban-compare,1,0,30934,16843.0,29006.0,Microban,Microban,41,48,"['#######', '#     #', '#@$$$ ##', '#  #...#', '##    ##', ' ######']","['######', '#  @ #', '#  # ##', '# .#  ##', '# .$$$ #', '# .#   #', '####   #', '   #####']"
0808-1234c64f-ccf4-46a1-bc6f-6827478f2d8e,difficult,6790956f96019241f9c4f675,pretest,sokoban-compare,1,1,27025,13204.0,25406.0,Sokogen-990602-Levels,Microban,17,41,"['#####', '#@  ###', '# $$$ #', '## ...#', '#   # #', '#     #', '#######']","['#######', '#     #', '#@$$$ ##', '#  #...#', '##    ##', ' ######']"
8434-afec4833-f835-4abb-8008-d4d2a46783b0,enjoyable,6790956f96019241f9c4f67f,pretest,sokoban-compare,1,1,24006,10812.0,21419.0,Dimitri-and-Yorick,Microban,37,41,"['######', '# @$.#', '# $$.#', '#  #.#', '#    #', '######']","['#######', '#     #', '#@$$$ ##', '#  #...#', '##    ##', ' ######']"
6186-32e70ee4-7ac6-4d03-856c-c7e9ef8aba13,difficult,6790956f96019241f9c4f674,pretest,sokoban-compare,1,0,28936,15276.0,27797.0,Sokogen-990602-Levels,Microban,19,48,"['######', '#@  .#', '#$$$ #', '#. # #', '#  . #', '######']","['######', '#  @ #', '#  # ##', '# .#  ##', '# .$$$ #', '# .#   #', '####   #', '   #####']"
8941-a75295a1-0952-400a-98d3-689ad17d5fd6,enjoyable,6790956f96019241f9c4f677,pretest,sokoban-compare,5,0,23163,10702.0,22438.0,Sokogen-990602-Levels,Sokogen-990602-Levels,17,6,"['#####', '#@  ###', '# $$$ #', '## ...#', '#   # #', '#     #', '#######']","[' #####', '##   ###', '# .# $@#', '#  # # #', '# *  $.#', '#    ###', '######']"
0808-1234c64f-ccf4-46a1-bc6f-6827478f2d8e,difficult,6790956f96019241f9c4f675,pretest,sokoban-compare,2,0,25106,12332.0,24121.0,Microban,Sokogen-990602-Levels,41,6,"['#######', '#     #', '#@$$$ ##', '#  #...#', '##    ##', ' ######']","[' #####', '##   ###', '# .# $@#', '#  # # #', '# *  $.#', '#    ###', '######']"
9875-77c31433-07e1-4aef-a4e5-043f15ecb034,difficult,6790956f96019241f9c4f66f,pretest,sokoban-compare,2,1,26166,13324.0,25260.0,Dimitri-and-Yorick,Sokogen-990602-Levels,37,6,"['######', '# @$.#', '# $$.#', '#  #.#', '#    #', '######']","[' #####', '##   ###', '# .# $@#', '#  # # #', '# *  $.#', '#    ###', '######']"
8434-afec4833-f835-4abb-8008-d4d2a46783b0,enjoyable,6790956f96019241f9c4f67f,pretest,sokoban-compare,2,0,23439,10348.0,20719.0,Sokogen-990602-Levels,Sokogen-990602-Levels,19,6,"['######', '#@  .#', '#$$$ #', '#. # #', '#  . #', '######']","[' #####', '##   ###', '# .# $@#', '#  # # #', '# *  $.#', '#    ###', '######']"
3398-8fd61e31-c1ca-4273-94c4-fcce5e1b8ca2,difficult,6790956f96019241f9c4f671,pretest,sokoban-compare,1,0,25652,11684.0,24224.0,Microban,Microban,33,48,"['#######', '#. #  #', '#  $  #', '#. $#@#', '#  $  #', '#. #  #', '#######']","['######', '#  @ #', '#  # ##', '# .#  ##', '# .$$$ #', '# .#   #', '####   #', '   #####']"
8941-a75295a1-0952-400a-98d3-689ad17d5fd6,enjoyable,6790956f96019241f9c4f677,pretest,sokoban-compare,6,1,22788,11399.0,21803.0,Dimitri-and-Yorick,Sokogen-990602-Levels,37,39,"['######', '# @$.#', '# $$.#', '#  #.#', '#    #', '######']","['######', '#    #', '# ## ##', '# . * ###', '## $ *  #', ' #  #  @#', ' ########']"
5158-d99f7eab-0aa9-4d14-be5b-5d7b30250881,enjoyable,6790956f96019241f9c4f679,pretest,sokoban-compare,1,0,31028,11649.0,29877.0,Sokogen-990602-Levels,Microban,6,48,"[' #####', '##   ###', '# .# $@#', '#  # # #', '# *  $.#', '#    ###', '######']","['######', '#  @ #', '#  # ##', '# .#  ##', '# .$$$ #', '# .#   #', '####   #', '   #####']"
6186-32e70ee4-7ac6-4d03-856c-c7e9ef8aba13,difficult,6790956f96019241f9c4f674,pretest,sokoban-compare,2,1,34558,19452.0,33816.0,Sokogen-990602-Levels,Microban,17,41,"['#####', '#@  ###', '# $$$ #', '## ...#', '#   # #', '#     #', '#######']","['#######', '#     #', '#@$$$ ##', '#  #...#', '##    ##', ' ######']"
0209-82f8d7b1-7d8c-421b-becd-e2fc43eb28b8,difficult,6790956f96019241f9c4f676,pretest,sokoban-compare,1,1,32151,12915.0,31419.0,Dimitri-and-Yorick,Sokogen-990602-Levels,37,39,"['######', '# @$.#', '# $$.#', '#  #.#', '#    #', '######']","['######', '#    #', '# ## ##', '# . * ###', '## $ *  #', ' #  #  @#', ' ########']"
8434-afec4833-f835-4abb-8008-d4d2a46783b0,enjoyable,6790956f96019241f9c4f67f,pretest,sokoban-compare,3,0,23508,10401.0,23026.0,Sokogen-990602-Levels,Microban,17,41,"['#####', '#@  ###', '# $$$ #', '## ...#', '#   # #', '#     #', '#######']","['#######', '#     #', '#@$$$ ##', '#  #...#', '##    ##', ' ######']"
0808-1234c64f-ccf4-46a1-bc6f-6827478f2d8e,difficult,6790956f96019241f9c4f675,pretest,sokoban-compare,3,0,28144,15597.0,27207.0,Microban,Sokogen-990602-Levels,48,39,"['######', '#  @ #', '#  # ##', '# .#  ##', '# .$$$ #', '# .#   #', '####   #', '   #####']","['######', '#    #', '# ## ##', '# . * ###', '## $ *  #', ' #  #  @#', ' ########']"
9929-112c5ca1-1f34-42cb-b380-2ddd456ce48e,enjoyable,6790957096019241f9c4f689,pretest,sokoban-compare,1,0,26639,14628.0,25616.0,Sokogen-990602-Levels,Sokogen-990602-Levels,19,6,"['######', '#@  .#', '#$$$ #', '#. # #', '#  . #', '######']","[' #####', '##   ###', '# .# $@#', '#  # # #', '# *  $.#', '#    ###', '######']"
3398-8fd61e31-c1ca-4273-94c4-fcce5e1b8ca2,difficult,6790956f96019241f9c4f671,pretest,sokoban-compare,2,0,25466,13878.0,24773.0,Microban,Sokogen-990602-Levels,33,19,"['#######', '#. #  #', '#  $  #', '#. $#@#', '#  $  #', '#. #  #', '#######']","['######', '#@  .#', '#$$$ #', '#. # #', '#  . #', '######']"
9875-77c31433-07e1-4aef-a4e5-043f15ecb034,difficult,6790956f96019241f9c4f66f,pretest,sokoban-compare,3,0,29779,15478.0,29067.0,Sokogen-990602-Levels,Microban,17,41,"['#####', '#@  ###', '# $$$ #', '## ...#', '#   # #', '#     #', '#######']","['#######', '#     #', '#@$$$ ##', '#  #...#', '##    ##', ' ######']"
5808-784eccb3-6c57-47b0-b644-b30e7354513c,enjoyable,6790956f96019241f9c4f680,pretest,sokoban-compare,1,1,27883,15732.0,26925.0,Sokogen-990602-Levels,Microban,6,48,"[' #####', '##   ###', '# .# $@#', '#  # # #', '# *  $.#', '#    ###', '######']","['######', '#  @ #', '#  # ##', '# .#  ##', '# .$$$ #', '# .#   #', '####   #', '   #####']"
8941-a75295a1-0952-400a-98d3-689ad17d5fd6,enjoyable,6790956f96019241f9c4f677,pretest,sokoban-compare,7,1,24231,11416.0,22042.0,Microban,Microban,41,48,"['#######', '#     #', '#@$$$ ##', '#  #...#', '##    ##', ' ######']","['######', '#  @ #', '#  # ##', '# .#  ##', '# .$$$ #', '# .#   #', '####   #', '   #####']"
6186-32e70ee4-7ac6-4d03-856c-c7e9ef8aba13,difficult,6790956f96019241f9c4f674,pretest,sokoban-compare,3,1,24087,10411.0,23067.0,Microban,Sokogen-990602-Levels,33,17,"['#######', '#. #  #', '#  $  #', '#. $#@#', '#  $  #', '#. #  #', '#######']","['#####', '#@  ###', '# $$$ #', '## ...#', '#   # #', '#     #', '#######']"
9929-112c5ca1-1f34-42cb-b380-2ddd456ce48e,enjoyable,6790957096019241f9c4f689,pretest,sokoban-compare,2,1,22622,11021.0,22277.0,Sokogen-990602-Levels,Microban,17,41,"['#####', '#@  ###', '# $$$ #', '## ...#', '#   # #', '#     #', '#######']","['#######', '#     #', '#@$$$ ##', '#  #...#', '##    ##', ' ######']"
8434-afec4833-f835-4abb-8008-d4d2a46783b0,enjoyable,6790956f96019241f9c4f67f,pretest,sokoban-compare,4,0,27249,14844.0,25222.0,Sokogen-990602-Levels,Sokogen-990602-Levels,19,39,"['######', '#@  .#', '#$$$ #', '#. # #', '#  . #', '######']","['######', '#    #', '# ## ##', '# . * ###', '## $ *  #', ' #  #  @#', ' ########']"
5158-d99f7eab-0aa9-4d14-be5b-5d7b30250881,enjoyable,6790956f96019241f9c4f679,pretest,sokoban-compare,2,1,40248,20372.0,38343.0,Sokogen-990602-Levels,Microban,17,41,"['#####', '#@  ###', '# $$$ #', '## ...#', '#   # #', '#     #', '#######']","['#######', '#     #', '#@$$$ ##', '#  #...#', '##    ##', ' ######']"
9875-77c31433-07e1-4aef-a4e5-043f15ecb034,difficult,6790956f96019241f9c4f66f,pretest,sokoban-compare,4,1,24312,11860.0,23645.0,Dimitri-and-Yorick,Sokogen-990602-Levels,37,39,"['######', '# @$.#', '# $$.#', '#  #.#', '#    #', '######']","['######', '#    #', '# ## ##', '# . * ###', '## $ *  #', ' #  #  @#', ' ########']"
0209-82f8d7b1-7d8c-421b-becd-e2fc43eb28b8,difficult,6790956f96019241f9c4f676,pretest,sokoban-compare,2,1,30710,15465.0,29653.0,Microban,Sokogen-990602-Levels,33,19,"['#######', '#. #  #', '#  $  #', '#. $#@#', '#  $  #', '#. #  #', '#######']","['######', '#@  .#', '#$$$ #', '#. # #', '#  . #', '######']"
0808-1234c64f-ccf4-46a1-bc6f-6827478f2d8e,difficult,6790956f96019241f9c4f675,pretest,sokoban-compare,4,0,26384,11407.0,24742.0,Sokogen-990602-Levels,Sokogen-990602-Levels,19,6,"['######', '#@  .#', '#$$$ #', '#. # #', '#  . #', '######']","[' #####', '##   ###', '# .# $@#', '#  # # #', '# *  $.#', '#    ###', '######']"
8941-a75295a1-0952-400a-98d3-689ad17d5fd6,enjoyable,6790956f96019241f9c4f677,pretest,sokoban-compare,8,1,22785,10487.0,22124.0,Dimitri-and-Yorick,Microban,37,41,"['######', '# @$.#', '# $$.#', '#  #.#', '#    #', '######']","['#######', '#     #', '#@$$$ ##', '#  #...#', '##    ##', ' ######']"
3398-8fd61e31-c1ca-4273-94c4-fcce5e1b8ca2,difficult,6790956f96019241f9c4f671,pretest,sokoban-compare,3,0,34867,17311.0,30388.0,Sokogen-990602-Levels,Microban,6,48,"[' #####', '##   ###', '# .# $@#', '#  # # #', '# *  $.#', '#    ###', '######']","['######', '#  @ #', '#  # ##', '# .#  ##', '# .$$$ #', '# .#   #', '####   #', '   #####']"
5808-784eccb3-6c57-47b0-b644-b30e7354513c,enjoyable,6790956f96019241f9c4f680,pretest,sokoban-compare,2,1,31857,20689.0,31341.0,Sokogen-990602-Levels,Microban,19,41,"['######', '#@  .#', '#$$$ #', '#. # #', '#  . #', '######']","['#######', '#     #', '#@$$$ ##', '#  #...#', '##    ##', ' ######']"
8434-afec4833-f835-4abb-8008-d4d2a46783b0,enjoyable,6790956f96019241f9c4f67f,pretest,sokoban-compare,5,1,21929,11024.0,21463.0,Microban,Sokogen-990602-Levels,33,17,"['#######', '#. #  #', '#  $  #', '#. $#@#', '#  $  #', '#. #  #', '#######']","['#####', '#@  ###', '# $$$ #', '## ...#', '#   # #', '#     #', '#######']"
9929-112c5ca1-1f34-42cb-b380-2ddd456ce48e,enjoyable,6790957096019241f9c4f689,pretest,sokoban-compare,3,1,23541,11427.0,23174.0,Microban,Sokogen-990602-Levels,41,6,"['#######', '#     #', '#@$$$ ##', '#  #...#', '##    ##', ' ######']","[' #####', '##   ###', '# .# $@#', '#  # # #', '# *  $.#', '#    ###', '######']"
4221-f8153973-98d6-43e5-9908-2a60cadfb458,difficult,6790956f96019241f9c4f663,pretest,sokoban-compare,1,1,43824,13204.0,26812.0,Dimitri-and-Yorick,Microban,37,41,"['######', '# @$.#', '# $$.#', '#  #.#', '#    #', '######']","['#######', '#     #', '#@$$$ ##', '#  #...#', '##    ##', ' ######']"
5158-d99f7eab-0aa9-4d14-be5b-5d7b30250881,enjoyable,6790956f96019241f9c4f679,pretest,sokoban-compare,3,0,25234,11484.0,24467.0,Sokogen-990602-Levels,Dimitri-and-Yorick,17,37,"['#####', '#@  ###', '# $$$ #', '## ...#', '#   # #', '#     #', '#######']","['######', '# @$.#', '# $$.#', '#  #.#', '#    #', '######']"
6186-32e70ee4-7ac6-4d03-856c-c7e9ef8aba13,difficult,6790956f96019241f9c4f674,pretest,sokoban-compare,4,1,37183,12241.0,36291.0,Microban,Sokogen-990602-Levels,48,39,"['######', '#  @ #', '#  # ##', '# .#  ##', '# .$$$ #', '# .#   #', '####   #', '   #####']","['######', '#    #', '# ## ##', '# . * ###', '## $ *  #', ' #  #  @#', ' ########']"
0808-1234c64f-ccf4-46a1-bc6f-6827478f2d8e,difficult,6790956f96019241f9c4f675,pretest,sokoban-compare,5,1,33004,13505.0,31842.0,Sokogen-990602-Levels,Dimitri-and-Yorick,17,37,"['#####', '#@  ###', '# $$$ #', '## ...#', '#   # #', '#     #', '#######']","['######', '# @$.#', '# $$.#', '#  #.#', '#    #', '######']"
0209-82f8d7b1-7d8c-421b-becd-e2fc43eb28b8,difficult,6790956f96019241f9c4f676,pretest,sokoban-compare,3,0,36768,24156.0,36136.0,Sokogen-990602-Levels,Microban,19,41,"['######', '#@  .#', '#$$$ #', '#. # #', '#  . #', '######']","['#######', '#     #', '#@$$$ ##', '#  #...#', '##    ##', ' ######']"
3398-8fd61e31-c1ca-4273-94c4-fcce5e1b8ca2,difficult,6790956f96019241f9c4f671,pretest,sokoban-compare,4,0,28756,15172.0,28080.0,Dimitri-and-Yorick,Sokogen-990602-Levels,37,39,"['######', '# @$.#', '# $$.#', '#  #.#', '#    #', '######']","['######', '#    #', '# ## ##', '# . * ###', '## $ *  #', ' #  #  @#', ' ########']"
5808-784eccb3-6c57-47b0-b644-b30e7354513c,enjoyable,6790956f96019241f9c4f680,pretest,sokoban-compare,3,1,27807,12847.0,27286.0,Sokogen-990602-Levels,Sokogen-990602-Levels,19,6,"['######', '#@  .#', '#$$$ #', '#. # #', '#  . #', '######']","[' #####', '##   ###', '# .# $@#', '#  # # #', '# *  $.#', '#    ###', '######']"
8434-afec4833-f835-4abb-8008-d4d2a46783b0,enjoyable,6790956f96019241f9c4f67f,pretest,sokoban-compare,6,1,23677,11738.0,22869.0,Dimitri-and-Yorick,Sokogen-990602-Levels,37,6,"['######', '# @$.#', '# $$.#', '#  #.#', '#    #', '######']","[' #####', '##   ###', '# .# $@#', '#  # # #', '# *  $.#', '#    ###', '######']"
9929-112c5ca1-1f34-42cb-b380-2ddd456ce48e,enjoyable,6790957096019241f9c4f689,pretest,sokoban-compare,4,1,23506,10619.0,23171.0,Dimitri-and-Yorick,Microban,37,48,"['######', '# @$.#', '# $$.#', '#  #.#', '#    #', '######']","['######', '#  @ #', '#  # ##', '# .#  ##', '# .$$$ #', '# .#   #', '####   #', '   #####']"
4221-f8153973-98d6-43e5-9908-2a60cadfb458,difficult,6790956f96019241f9c4f663,pretest,sokoban-compare,2,1,28418,11686.0,24434.0,Microban,Microban,41,48,"['#######', '#     #', '#@$$$ ##', '#  #...#', '##    ##', ' ######']","['######', '#  @ #', '#  # ##', '# .#  ##', '# .$$$ #', '# .#   #', '####   #', '   #####']"
5158-d99f7eab-0aa9-4d14-be5b-5d7b30250881,enjoyable,6790956f96019241f9c4f679,pretest,sokoban-compare,4,1,25341,10620.0,24386.0,Sokogen-990602-Levels,Sokogen-990602-Levels,19,39,"['######', '#@  .#', '#$$$ #', '#. # #', '#  . #', '######']","['######', '#    #', '# ## ##', '# . * ###', '## $ *  #', ' #  #  @#', ' ########']"
9875-77c31433-07e1-4aef-a4e5-043f15ecb034,difficult,6790956f96019241f9c4f66f,pretest,sokoban-compare,5,0,51836,21521.0,51153.0,Microban,Sokogen-990602-Levels,33,19,"['#######', '#. #  #', '#  $  #', '#. $#@#', '#  $  #', '#. #  #', '#######']","['######', '#@  .#', '#$$$ #', '#. # #', '#  . #', '######']"
0808-1234c64f-ccf4-46a1-bc6f-6827478f2d8e,difficult,6790956f96019241f9c4f675,pretest,sokoban-compare,6,0,23192,10865.0,22302.0,Microban,Sokogen-990602-Levels,33,39,"['#######', '#. #  #', '#  $  #', '#. $#@#', '#  $  #', '#. #  #', '#######']","['######', '#    #', '# ## ##', '# . * ###', '## $ *  #', ' #  #  @#', ' ########']"
5808-784eccb3-6c57-47b0-b644-b30e7354513c,enjoyable,6790956f96019241f9c4f680,pretest,sokoban-compare,4,0,25183,14128.0,24652.0,Dimitri-and-Yorick,Sokogen-990602-Levels,37,39,"['######', '# @$.#', '# $$.#', '#  #.#', '#    #', '######']","['######', '#    #', '# ## ##', '# . * ###', '## $ *  #', ' #  #  @#', ' ########']"
3398-8fd61e31-c1ca-4273-94c4-fcce5e1b8ca2,difficult,6790956f96019241f9c4f671,pretest,sokoban-compare,5,0,27136,13044.0,26660.0,Microban,Sokogen-990602-Levels,41,39,"['#######', '#     #', '#@$$$ ##', '#  #...#', '##    ##', ' ######']","['######', '#    #', '# ## ##', '# . * ###', '## $ *  #', ' #  #  @#', ' ########']"
9929-112c5ca1-1f34-42cb-b380-2ddd456ce48e,enjoyable,6790957096019241f9c4f689,pretest,sokoban-compare,5,0,21209,10373.0,20742.0,Microban,Sokogen-990602-Levels,33,39,"['#######', '#. #  #', '#  $  #', '#. $#@#', '#  $  #', '#. #  #', '#######']","['######', '#    #', '# ## ##', '# . * ###', '## $ *  #', ' #  #  @#', ' ########']"
8434-afec4833-f835-4abb-8008-d4d2a46783b0,enjoyable,6790956f96019241f9c4f67f,pretest,sokoban-compare,7,1,22911,10429.0,22505.0,Microban,Microban,33,48,"['#######', '#. #  #', '#  $  #', '#. $#@#', '#  $  #', '#. #  #', '#######']","['######', '#  @ #', '#  # ##', '# .#  ##', '# .$$$ #', '# .#   #', '####   #', '   #####']"
0209-82f8d7b1-7d8c-421b-becd-e2fc43eb28b8,difficult,6790956f96019241f9c4f676,pretest,sokoban-compare,4,1,33622,12110.0,31564.0,Microban,Microban,33,48,"['#######', '#. #  #', '#  $  #', '#. $#@#', '#  $  #', '#. #  #', '#######']","['######', '#  @ #', '#  # ##', '# .#  ##', '# .$$$ #', '# .#   #', '####   #', '   #####']"
5158-d99f7eab-0aa9-4d14-be5b-5d7b30250881,enjoyable,6790956f96019241f9c4f679,pretest,sokoban-compare,5,0,27588,15076.0,27007.0,Sokogen-990602-Levels,Sokogen-990602-Levels,6,39,"[' #####', '##   ###', '# .# $@#', '#  # # #', '# *  $.#', '#    ###', '######']","['######', '#    #', '# ## ##', '# . * ###', '## $ *  #', ' #  #  @#', ' ########']"
0808-1234c64f-ccf4-46a1-bc6f-6827478f2d8e,difficult,6790956f96019241f9c4f675,pretest,sokoban-compare,7,0,25848,13203.0,24927.0,Microban,Sokogen-990602-Levels,33,19,"['#######', '#. #  #', '#  $  #', '#. $#@#', '#  $  #', '#. #  #', '#######']","['######', '#@  .#', '#$$$ #', '#. # #', '#  . #', '######']"
9929-112c5ca1-1f34-42cb-b380-2ddd456ce48e,enjoyable,6790957096019241f9c4f689,pretest,sokoban-compare,6,1,21121,10440.0,20771.0,Sokogen-990602-Levels,Dimitri-and-Yorick,17,37,"['#####', '#@  ###', '# $$$ #', '## ...#', '#   # #', '#     #', '#######']","['######', '# @$.#', '# $$.#', '#  #.#', '#    #', '######']"
8434-afec4833-f835-4abb-8008-d4d2a46783b0,enjoyable,6790956f96019241f9c4f67f,pretest,sokoban-compare,8,0,23472,12175.0,22876.0,Microban,Sokogen-990602-Levels,48,39,"['######', '#  @ #', '#  # ##', '# .#  ##', '# .$$$ #', '# .#   #', '####   #', '   #####']","['######', '#    #', '# ## ##', '# . * ###', '## $ *  #', ' #  #  @#', ' ########']"
5808-784eccb3-6c57-47b0-b644-b30e7354513c,enjoyable,6790956f96019241f9c4f680,pretest,sokoban-compare,5,1,25350,12668.0,24705.0,Microban,Dimitri-and-Yorick,33,37,"['#######', '#. #  #', '#  $  #', '#. $#@#', '#  $  #', '#. #  #', '#######']","['######', '# @$.#', '# $$.#', '#  #.#', '#    #', '######']"
6186-32e70ee4-7ac6-4d03-856c-c7e9ef8aba13,difficult,6790956f96019241f9c4f674,pretest,sokoban-compare,5,0,63430,18404.0,53670.0,Dimitri-and-Yorick,Microban,37,41,"['######', '# @$.#', '# $$.#', '#  #.#', '#    #', '######']","['#######', '#     #', '#@$$$ ##', '#  #...#', '##    ##', ' ######']"
4221-f8153973-98d6-43e5-9908-2a60cadfb458,difficult,6790956f96019241f9c4f663,pretest,sokoban-compare,3,1,41322,11490.0,26662.0,Microban,Sokogen-990602-Levels,33,17,"['#######', '#. #  #', '#  $  #', '#. $#@#', '#  $  #', '#. #  #', '#######']","['#####', '#@  ###', '# $$$ #', '## ...#', '#   # #', '#     #', '#######']"
8970-248ef224-45f0-409b-b3f9-00ecd37777f1,difficult,6790956f96019241f9c4f673,pretest,sokoban-compare,1,1,66688,35304.0,64639.0,Microban,Microban,33,41,"['#######', '#. #  #', '#  $  #', '#. $#@#', '#  $  #', '#. #  #', '#######']","['#######', '#     #', '#@$$$ ##', '#  #...#', '##    ##', ' ######']"
3398-8fd61e31-c1ca-4273-94c4-fcce5e1b8ca2,difficult,6790956f96019241f9c4f671,pretest,sokoban-compare,6,0,30494,13358.0,29939.0,Sokogen-990602-Levels,Sokogen-990602-Levels,17,6,"['#####', '#@  ###', '# $$$ #', '## ...#', '#   # #', '#     #', '#######']","[' #####', '##   ###', '# .# $@#', '#  # # #', '# *  $.#', '#    ###', '######']"
9875-77c31433-07e1-4aef-a4e5-043f15ecb034,difficult,6790956f96019241f9c4f66f,pretest,sokoban-compare,6,0,36924,12473.0,23115.0,Microban,Sokogen-990602-Levels,33,6,"['#######', '#. #  #', '#  $  #', '#. $#@#', '#  $  #', '#. #  #', '#######']","[' #####', '##   ###', '# .# $@#', '#  # # #', '# *  $.#', '#    ###', '######']"
0209-82f8d7b1-7d8c-421b-becd-e2fc43eb28b8,difficult,6790956f96019241f9c4f676,pretest,sokoban-compare,5,0,27865,16002.0,27217.0,Sokogen-990602-Levels,Microban,17,48,"['#####', '#@  ###', '# $$$ #', '## ...#', '#   # #', '#     #', '#######']","['######', '#  @ #', '#  # ##', '# .#  ##', '# .$$$ #', '# .#   #', '####   #', '   #####']"
5158-d99f7eab-0aa9-4d14-be5b-5d7b30250881,enjoyable,6790956f96019241f9c4f679,pretest,sokoban-compare,6,1,23699,11739.0,23181.0,Microban,Microban,41,48,"['#######', '#     #', '#@$$$ ##', '#  #...#', '##    ##', ' ######']","['######', '#  @ #', '#  # ##', '# .#  ##', '# .$$$ #', '# .#   #', '####   #', '   #####']"
9929-112c5ca1-1f34-42cb-b380-2ddd456ce48e,enjoyable,6790957096019241f9c4f689,pretest,sokoban-compare,7,0,21087,10367.0,20714.0,Microban,Sokogen-990602-Levels,33,19,"['#######', '#. #  #', '#  $  #', '#. $#@#', '#  $  #', '#. #  #', '#######']","['######', '#@  .#', '#$$$ #', '#. # #', '#  . #', '######']"
0808-1234c64f-ccf4-46a1-bc6f-6827478f2d8e,difficult,6790956f96019241f9c4f675,pretest,sokoban-compare,8,1,24232,11648.0,23262.0,Dimitri-and-Yorick,Microban,37,48,"['######', '# @$.#', '# $$.#', '#  #.#', '#    #', '######']","['######', '#  @ #', '#  # ##', '# .#  ##', '# .$$$ #', '# .#   #', '####   #', '   #####']"
4221-f8153973-98d6-43e5-9908-2a60cadfb458,difficult,6790956f96019241f9c4f663,pretest,sokoban-compare,4,0,25265,11571.0,23505.0,Dimitri-and-Yorick,Sokogen-990602-Levels,37,39,"['######', '# @$.#', '# $$.#', '#  #.#', '#    #', '######']","['######', '#    #', '# ## ##', '# . * ###', '## $ *  #', ' #  #  @#', ' ########']"
5808-784eccb3-6c57-47b0-b644-b30e7354513c,enjoyable,6790956f96019241f9c4f680,pretest,sokoban-compare,6,0,27918,13434.0,27427.0,Microban,Microban,33,48,"['#######', '#. #  #', '#  $  #', '#. $#@#', '#  $  #', '#. #  #', '#######']","['######', '#  @ #', '#  # ##', '# .#  ##', '# .$$$ #', '# .#   #', '####   #', '   #####']"
3398-8fd61e31-c1ca-4273-94c4-fcce5e1b8ca2,difficult,6790956f96019241f9c4f671,pretest,sokoban-compare,7,1,24443,11402.0,23230.0,Sokogen-990602-Levels,Dimitri-and-Yorick,17,37,"['#####', '#@  ###', '# $$$ #', '## ...#', '#   # #', '#     #', '#######']","['######', '# @$.#', '# $$.#', '#  #.#', '#    #', '######']"
0209-82f8d7b1-7d8c-421b-becd-e2fc43eb28b8,difficult,6790956f96019241f9c4f676,pretest,sokoban-compare,6,0,22851,11300.0,21794.0,Sokogen-990602-Levels,Dimitri-and-Yorick,17,37,"['#####', '#@  ###', '# $$$ #', '## ...#', '#   # #', '#     #', '#######']","['######', '# @$.#', '# $$.#', '#  #.#', '#    #', '######']"
5158-d99f7eab-0aa9-4d14-be5b-5d7b30250881,enjoyable,6790956f96019241f9c4f679,pretest,sokoban-compare,7,0,23419,11165.0,22824.0,Microban,Sokogen-990602-Levels,33,19,"['#######', '#. #  #', '#  $  #', '#. $#@#', '#  $  #', '#. #  #', '#######']","['######', '#@  .#', '#$$$ #', '#. # #', '#  . #', '######']"
9875-77c31433-07e1-4aef-a4e5-043f15ecb034,difficult,6790956f96019241f9c4f66f,pretest,sokoban-compare,7,1,27935,12821.0,27279.0,Sokogen-990602-Levels,Sokogen-990602-Levels,17,39,"['#####', '#@  ###', '# $$$ #', '## ...#', '#   # #', '#     #', '#######']","['######', '#    #', '# ## ##', '# . * ###', '## $ *  #', ' #  #  @#', ' ########']"
9929-112c5ca1-1f34-42cb-b380-2ddd456ce48e,enjoyable,6790957096019241f9c4f689,pretest,sokoban-compare,8,0,21625,10314.0,21116.0,Microban,Sokogen-990602-Levels,48,39,"['######', '#  @ #', '#  # ##', '# .#  ##', '# .$$$ #', '# .#   #', '####   #', '   #####']","['######', '#    #', '# ## ##', '# . * ###', '## $ *  #', ' #  #  @#', ' ########']"
4716-1b2723d0-ff1a-41ed-8ea9-bceb42bd14ce,difficult,6790957096019241f9c4f68c,pretest,sokoban-compare,1,0,27691,12876.0,25522.0,Microban,Sokogen-990602-Levels,26,40,"[' #####', ' # @ #', ' #   #', '###$ #', '# ...#', '# $$ #', '###  #', '  ####']","['######', '#    ###', '# @#$  #', '# *.$  #', '# . #  #', '########']"
6186-32e70ee4-7ac6-4d03-856c-c7e9ef8aba13,difficult,6790956f96019241f9c4f674,pretest,sokoban-compare,6,1,47912,12640.0,30744.0,Dimitri-and-Yorick,Sokogen-990602-Levels,37,6,"['######', '# @$.#', '# $$.#', '#  #.#', '#    #', '######']","[' #####', '##   ###', '# .# $@#', '#  # # #', '# *  $.#', '#    ###', '######']"
4221-f8153973-98d6-43e5-9908-2a60cadfb458,difficult,6790956f96019241f9c4f663,pretest,sokoban-compare,5,1,24071,11515.0,22615.0,Sokogen-990602-Levels,Sokogen-990602-Levels,17,6,"['#####', '#@  ###', '# $$$ #', '## ...#', '#   # #', '#     #', '#######']","[' #####', '##   ###', '# .# $@#', '#  # # #', '# *  $.#', '#    ###', '######']"
5808-784eccb3-6c57-47b0-b644-b30e7354513c,enjoyable,6790956f96019241f9c4f680,pretest,sokoban-compare,7,1,23937,11860.0,23459.0,Sokogen-990602-Levels,Microban,17,41,"['#####', '#@  ###', '# $$$ #', '## ...#', '#   # #', '#     #', '#######']","['#######', '#     #', '#@$$$ ##', '#  #...#', '##    ##', ' ######']"
8970-248ef224-45f0-409b-b3f9-00ecd37777f1,difficult,6790956f96019241f9c4f673,pretest,sokoban-compare,2,1,50733,19196.0,32215.0,Microban,Sokogen-990602-Levels,33,6,"['#######', '#. #  #', '#  $  #', '#. $#@#', '#  $  #', '#. #  #', '#######']","[' #####', '##   ###', '# .# $@#', '#  # # #', '# *  $.#', '#    ###', '######']"
3398-8fd61e31-c1ca-4273-94c4-fcce5e1b8ca2,difficult,6790956f96019241f9c4f671,pretest,sokoban-compare,8,1,27964,11223.0,26149.0,Sokogen-990602-Levels,Microban,19,41,"['######', '#@  .#', '#$$$ #', '#. # #', '#  . #', '######']","['#######', '#     #', '#@$$$ ##', '#  #...#', '##    ##', ' ######']"
9875-77c31433-07e1-4aef-a4e5-043f15ecb034,difficult,6790956f96019241f9c4f66f,pretest,sokoban-compare,8,1,24829,12296.0,24231.0,Sokogen-990602-Levels,Microban,19,48,"['######', '#@  .#', '#$$$ #', '#. # #', '#  . #', '######']","['######', '#  @ #', '#  # ##', '# .#  ##', '# .$$$ #', '# .#   #', '####   #', '   #####']"
5158-d99f7eab-0aa9-4d14-be5b-5d7b30250881,enjoyable,6790956f96019241f9c4f679,pretest,sokoban-compare,8,1,24922,11864.0,24443.0,Microban,Dimitri-and-Yorick,33,37,"['#######', '#. #  #', '#  $  #', '#. $#@#', '#  $  #', '#. #  #', '#######']","['######', '# @$.#', '# $$.#', '#  #.#', '#    #', '######']"
0209-82f8d7b1-7d8c-421b-becd-e2fc43eb28b8,difficult,6790956f96019241f9c4f676,pretest,sokoban-compare,7,1,25753,11621.0,23936.0,Microban,Sokogen-990602-Levels,41,6,"['#######', '#     #', '#@$$$ ##', '#  #...#', '##    ##', ' ######']","[' #####', '##   ###', '# .# $@#', '#  # # #', '# *  $.#', '#    ###', '######']"
8829-549a72ed-1db2-424f-ba1f-171c5a187085,enjoyable,6790957096019241f9c4f687,pretest,sokoban-compare,1,0,35167,17764.0,33623.0,Sokogen-990602-Levels,Sokogen-990602-Levels,19,39,"['######', '#@  .#', '#$$$ #', '#. # #', '#  . #', '######']","['######', '#    #', '# ## ##', '# . * ###', '## $ *  #', ' #  #  @#', ' ########']"
4716-1b2723d0-ff1a-41ed-8ea9-bceb42bd14ce,difficult,6790957096019241f9c4f68c,pretest,sokoban-compare,2,1,26272,13258.0,25270.0,Sokogen-990602-Levels,Sokogen-990602-Levels,41,46,"['######', '#    #', '# ## ##', '# .$@.###', '## $$   #', ' #  #.  #', ' ########']","['#######', '##  ###', '## .$ #', '# $$  #', '# #. .#', '#@  ###', '#######']"
6186-32e70ee4-7ac6-4d03-856c-c7e9ef8aba13,difficult,6790956f96019241f9c4f674,pretest,sokoban-compare,7,0,24957,12518.0,24198.0,Sokogen-990602-Levels,Sokogen-990602-Levels,6,39,"[' #####', '##   ###', '# .# $@#', '#  # # #', '# *  $.#', '#    ###', '######']","['######', '#    #', '# ## ##', '# . * ###', '## $ *  #', ' #  #  @#', ' ########']"
4221-f8153973-98d6-43e5-9908-2a60cadfb458,difficult,6790956f96019241f9c4f663,pretest,sokoban-compare,6,0,33995,12322.0,27583.0,Sokogen-990602-Levels,Sokogen-990602-Levels,19,39,"['######', '#@  .#', '#$$$ #', '#. # #', '#  . #', '######']","['######', '#    #', '# ## ##', '# . * ###', '## $ *  #', ' #  #  @#', ' ########']"
8970-248ef224-45f0-409b-b3f9-00ecd37777f1,difficult,6790956f96019241f9c4f673,pretest,sokoban-compare,3,1,30540,11239.0,29407.0,Sokogen-990602-Levels,Sokogen-990602-Levels,17,6,"['#####', '#@  ###', '# $$$ #', '## ...#', '#   # #', '#     #', '#######']","[' #####', '##   ###', '# .# $@#', '#  # # #', '# *  $.#', '#    ###', '######']"
9452-adc2ff0b-2602-4162-a90b-ba6db4c203ce,enjoyable,6790956f96019241f9c4f67d,pretest,sokoban-compare,1,1,34434,11151.0,27217.0,Microban,Sokogen-990602-Levels,41,39,"['#######', '#     #', '#@$$$ ##', '#  #...#', '##    ##', ' ######']","['######', '#    #', '# ## ##', '# . * ###', '## $ *  #', ' #  #  @#', ' ########']"
8829-549a72ed-1db2-424f-ba1f-171c5a187085,enjoyable,6790957096019241f9c4f687,pretest,sokoban-compare,2,0,23712,12061.0,23081.0,Microban,Sokogen-990602-Levels,33,6,"['#######', '#. #  #', '#  $  #', '#. $#@#', '#  $  #', '#. #  #', '#######']","[' #####', '##   ###', '# .# $@#', '#  # # #', '# *  $.#', '#    ###', '######']"
5808-784eccb3-6c57-47b0-b644-b30e7354513c,enjoyable,6790956f96019241f9c4f680,pretest,sokoban-compare,8,0,40906,26915.0,40269.0,Sokogen-990602-Levels,Sokogen-990602-Levels,17,39,"['#####', '#@  ###', '# $$$ #', '## ...#', '#   # #', '#     #', '#######']","['######', '#    #', '# ## ##', '# . * ###', '## $ *  #', ' #  #  @#', ' ########']"
0209-82f8d7b1-7d8c-421b-becd-e2fc43eb28b8,difficult,6790956f96019241f9c4f676,pretest,sokoban-compare,8,0,33712,15288.0,32509.0,Sokogen-990602-Levels,Sokogen-990602-Levels,6,39,"[' #####', '##   ###', '# .# $@#', '#  # # #', '# *  $.#', '#    ###', '######']","['######', '#    #', '# ## ##', '# . * ###', '## $ *  #', ' #  #  @#', ' ########']"
4716-1b2723d0-ff1a-41ed-8ea9-bceb42bd14ce,difficult,6790957096019241f9c4f68c,pretest,sokoban-compare,3,1,25740,12010.0,24959.0,Microban,Microban,26,43,"[' #####', ' # @ #', ' #   #', '###$ #', '# ...#', '# $$ #', '###  #', '  ####']","['     ####', '     # @#', '     #  #', '###### .#', '#   $  .#', '#  $$# .#', '#    ####', '###  #', '  ####']"
6186-32e70ee4-7ac6-4d03-856c-c7e9ef8aba13,difficult,6790956f96019241f9c4f674,pretest,sokoban-compare,8,1,28223,14279.0,27579.0,Microban,Sokogen-990602-Levels,33,19,"['#######', '#. #  #', '#  $  #', '#. $#@#', '#  $  #', '#. #  #', '#######']","['######', '#@  .#', '#$$$ #', '#. # #', '#  . #', '######']"
4320-9a92a33e-6a72-478a-9973-6d8da20dea70,difficult,6790957096019241f9c4f692,pretest,sokoban-compare,1,1,49505,24808.0,45325.0,Microban,Sokogen-990602-Levels,43,46,"['     ####', '     # @#', '     #  #', '###### .#', '#   $  .#', '#  $$# .#', '#    ####', '###  #', '  ####']","['#######', '##  ###', '## .$ #', '# $$  #', '# #. .#', '#@  ###', '#######']"
4221-f8153973-98d6-43e5-9908-2a60cadfb458,difficult,6790956f96019241f9c4f663,pretest,sokoban-compare,7,0,24502,11364.0,22514.0,Sokogen-990602-Levels,Microban,6,48,"[' #####', '##   ###', '# .# $@#', '#  # # #', '# *  $.#', '#    ###', '######']","['######', '#  @ #', '#  # ##', '# .#  ##', '# .$$$ #', '# .#   #', '####   #', '   #####']"
4896-b66aacea-64dd-49d3-a2ef-7ab7dcb4dd82,difficult,6790957096019241f9c4f68b,pretest,sokoban-compare,1,0,24888,11784.0,23604.0,Sokogen-990602-Levels,Microcosmos,14,28,"['######', '#  . #', '# #. ##', '#  .  #', '# $$$ #', '#  # @#', '#######']","['     ####', '    ##  #', '   ## . #', '#### $  #', '# $ $.@##', '#  .  ##', '#######']"
9452-adc2ff0b-2602-4162-a90b-ba6db4c203ce,enjoyable,6790956f96019241f9c4f67d,pretest,sokoban-compare,2,0,30078,11178.0,27829.0,Sokogen-990602-Levels,Microban,19,48,"['######', '#@  .#', '#$$$ #', '#. # #', '#  . #', '######']","['######', '#  @ #', '#  # ##', '# .#  ##', '# .$$$ #', '# .#   #', '####   #', '   #####']"
4716-1b2723d0-ff1a-41ed-8ea9-bceb42bd14ce,difficult,6790957096019241f9c4f68c,pretest,sokoban-compare,4,1,23956,11494.0,23141.0,Microban,Sokogen-990602-Levels,17,46,"['#####', '# @ #', '#...#', '#$$$##', '#    #', '#    #', '######']","['#######', '##  ###', '## .$ #', '# $$  #', '# #. .#', '#@  ###', '#######']"
8829-549a72ed-1db2-424f-ba1f-171c5a187085,enjoyable,6790957096019241f9c4f687,pretest,sokoban-compare,3,1,31162,13755.0,30371.0,Sokogen-990602-Levels,Sokogen-990602-Levels,17,6,"['#####', '#@  ###', '# $$$ #', '## ...#', '#   # #', '#     #', '#######']","[' #####', '##   ###', '# .# $@#', '#  # # #', '# *  $.#', '#    ###', '######']"
8970-248ef224-45f0-409b-b3f9-00ecd37777f1,difficult,6790956f96019241f9c4f673,pretest,sokoban-compare,4,1,40681,12436.0,39848.0,Microban,Microban,41,48,"['#######', '#     #', '#@$$$ ##', '#  #...#', '##    ##', ' ######']","['######', '#  @ #', '#  # ##', '# .#  ##', '# .$$$ #', '# .#   #', '####   #', '   #####']"
4221-f8153973-98d6-43e5-9908-2a60cadfb458,difficult,6790956f96019241f9c4f663,pretest,sokoban-compare,8,0,26268,12624.0,23944.0,Microban,Sokogen-990602-Levels,33,19,"['#######', '#. #  #', '#  $  #', '#. $#@#', '#  $  #', '#. #  #', '#######']","['######', '#@  .#', '#$$$ #', '#. # #', '#  . #', '######']"
9452-adc2ff0b-2602-4162-a90b-ba6db4c203ce,enjoyable,6790956f96019241f9c4f67d,pretest,sokoban-compare,3,1,25480,11896.0,23980.0,Microban,Microban,33,48,"['#######', '#. #  #', '#  $  #', '#. $#@#', '#  $  #', '#. #  #', '#######']","['######', '#  @ #', '#  # ##', '# .#  ##', '# .$$$ #', '# .#   #', '####   #', '   #####']"
4896-b66aacea-64dd-49d3-a2ef-7ab7dcb4dd82,difficult,6790957096019241f9c4f68b,pretest,sokoban-compare,2,0,28383,12812.0,26648.0,Sokogen-990602-Levels,Microban,41,17,"['######', '#    #', '# ## ##', '# .$@.###', '## $$   #', ' #  #.  #', ' ########']","['#####', '# @ #', '#...#', '#$$$##', '#    #', '#    #', '######']"
4320-9a92a33e-6a72-478a-9973-6d8da20dea70,difficult,6790957096019241f9c4f692,pretest,sokoban-compare,2,0,45731,13567.0,33624.0,Microban,Sokogen-990602-Levels,26,40,"[' #####', ' # @ #', ' #   #', '###$ #', '# ...#', '# $$ #', '###  #', '  ####']","['######', '#    ###', '# @#$  #', '# *.$  #', '# . #  #', '########']"
4716-1b2723d0-ff1a-41ed-8ea9-bceb42bd14ce,difficult,6790957096019241f9c4f68c,pretest,sokoban-compare,5,1,36605,13678.0,35774.0,Sokogen-990602-Levels,Microcosmos,14,28,"['######', '#  . #', '# #. ##', '#  .  #', '# $$$ #', '#  # @#', '#######']","['     ####', '    ##  #', '   ## . #', '#### $  #', '# $ $.@##', '#  .  ##', '#######']"
8829-549a72ed-1db2-424f-ba1f-171c5a187085,enjoyable,6790957096019241f9c4f687,pretest,sokoban-compare,4,0,31340,11276.0,27228.0,Microban,Microban,33,41,"['#######', '#. #  #', '#  $  #', '#. $#@#', '#  $  #', '#. #  #', '#######']","['#######', '#     #', '#@$$$ ##', '#  #...#', '##    ##', ' ######']"
4896-b66aacea-64dd-49d3-a2ef-7ab7dcb4dd82,difficult,6790957096019241f9c4f68b,pretest,sokoban-compare,3,0,26845,13488.0,25930.0,Microban,Sokogen-990602-Levels,43,46,"['     ####', '     # @#', '     #  #', '###### .#', '#   $  .#', '#  $$# .#', '#    ####', '###  #', '  ####']","['#######', '##  ###', '## .$ #', '# $$  #', '# #. .#', '#@  ###', '#######']"
9452-adc2ff0b-2602-4162-a90b-ba6db4c203ce,enjoyable,6790956f96019241f9c4f67d,pretest,sokoban-compare,4,0,32599,11213.0,30017.0,Microban,Sokogen-990602-Levels,41,6,"['#######', '#     #', '#@$$$ ##', '#  #...#', '##    ##', ' ######']","[' #####', '##   ###', '# .# $@#', '#  # # #', '# *  $.#', '#    ###', '######']"
8970-248ef224-45f0-409b-b3f9-00ecd37777f1,difficult,6790956f96019241f9c4f673,pretest,sokoban-compare,5,0,59162,17413.0,58279.0,Microban,Sokogen-990602-Levels,48,39,"['######', '#  @ #', '#  # ##', '# .#  ##', '# .$$$ #', '# .#   #', '####   #', '   #####']","['######', '#    #', '# ## ##', '# . * ###', '## $ *  #', ' #  #  @#', ' ########']"
8829-549a72ed-1db2-424f-ba1f-171c5a187085,enjoyable,6790957096019241f9c4f687,pretest,sokoban-compare,5,1,24629,10558.0,24155.0,Sokogen-990602-Levels,Dimitri-and-Yorick,19,37,"['######', '#@  .#', '#$$$ #', '#. # #', '#  . #', '######']","['######', '# @$.#', '# $$.#', '#  #.#', '#    #', '######']"
4320-9a92a33e-6a72-478a-9973-6d8da20dea70,difficult,6790957096019241f9c4f692,pretest,sokoban-compare,3,1,34731,12053.0,33401.0,Microban,Microban,26,17,"[' #####', ' # @ #', ' #   #', '###$ #', '# ...#', '# $$ #', '###  #', '  ####']","['#####', '# @ #', '#...#', '#$$$##', '#    #', '#    #', '######']"
4896-b66aacea-64dd-49d3-a2ef-7ab7dcb4dd82,difficult,6790957096019241f9c4f68b,pretest,sokoban-compare,4,0,24019,11962.0,22966.0,Microban,Sokogen-990602-Levels,26,40,"[' #####', ' # @ #', ' #   #', '###$ #', '# ...#', '# $$ #', '###  #', '  ####']","['######', '#    ###', '# @#$  #', '# *.$  #', '# . #  #', '########']"
4716-1b2723d0-ff1a-41ed-8ea9-bceb42bd14ce,difficult,6790957096019241f9c4f68c,pretest,sokoban-compare,6,1,37889,11612.0,36972.0,Microban,Sokogen-990602-Levels,17,14,"['#####', '# @ #', '#...#', '#$$$##', '#    #', '#    #', '######']","['######', '#  . #', '# #. ##', '#  .  #', '# $$$ #', '#  # @#', '#######']"
9452-adc2ff0b-2602-4162-a90b-ba6db4c203ce,enjoyable,6790956f96019241f9c4f67d,pretest,sokoban-compare,5,1,29296,15326.0,28430.0,Dimitri-and-Yorick,Sokogen-990602-Levels,37,6,"['######', '# @$.#', '# $$.#', '#  #.#', '#    #', '######']","[' #####', '##   ###', '# .# $@#', '#  # # #', '# *  $.#', '#    ###', '######']"
8829-549a72ed-1db2-424f-ba1f-171c5a187085,enjoyable,6790957096019241f9c4f687,pretest,sokoban-compare,6,1,26859,13612.0,26128.0,Microban,Microban,41,48,"['#######', '#     #', '#@$$$ ##', '#  #...#', '##    ##', ' ######']","['######', '#  @ #', '#  # ##', '# .#  ##', '# .$$$ #', '# .#   #', '####   #', '   #####']"
8970-248ef224-45f0-409b-b3f9-00ecd37777f1,difficult,6790956f96019241f9c4f673,pretest,sokoban-compare,6,0,35560,11494.0,34628.0,Sokogen-990602-Levels,Dimitri-and-Yorick,17,37,"['#####', '#@  ###', '# $$$ #', '## ...#', '#   # #', '#     #', '#######']","['######', '# @$.#', '# $$.#', '#  #.#', '#    #', '######']"
4896-b66aacea-64dd-49d3-a2ef-7ab7dcb4dd82,difficult,6790957096019241f9c4f68b,pretest,sokoban-compare,5,0,32403,17399.0,31432.0,Sokogen-990602-Levels,Sokogen-990602-Levels,41,46,"['######', '#    #', '# ## ##', '# .$@.###', '## $$   #', ' #  #.  #', ' ########']","['#######', '##  ###', '## .$ #', '# $$  #', '# #. .#', '#@  ###', '#######']"
4716-1b2723d0-ff1a-41ed-8ea9-bceb42bd14ce,difficult,6790957096019241f9c4f68c,pretest,sokoban-compare,7,1,30956,13883.0,26194.0,Sokogen-990602-Levels,Sokogen-990602-Levels,41,40,"['######', '#    #', '# ## ##', '# .$@.###', '## $$   #', ' #  #.  #', ' ########']","['######', '#    ###', '# @#$  #', '# *.$  #', '# . #  #', '########']"
9452-adc2ff0b-2602-4162-a90b-ba6db4c203ce,enjoyable,6790956f96019241f9c4f67d,pretest,sokoban-compare,6,0,26595,13690.0,25795.0,Sokogen-990602-Levels,Sokogen-990602-Levels,19,17,"['######', '#@  .#', '#$$$ #', '#. # #', '#  . #', '######']","['#####', '#@  ###', '# $$$ #', '## ...#', '#   # #', '#     #', '#######']"
8829-549a72ed-1db2-424f-ba1f-171c5a187085,enjoyable,6790957096019241f9c4f687,pretest,sokoban-compare,7,1,23088,11875.0,22381.0,Sokogen-990602-Levels,Dimitri-and-Yorick,17,37,"['#####', '#@  ###', '# $$$ #', '## ...#', '#   # #', '#     #', '#######']","['######', '# @$.#', '# $$.#', '#  #.#', '#    #', '######']"
4320-9a92a33e-6a72-478a-9973-6d8da20dea70,difficult,6790957096019241f9c4f692,pretest,sokoban-compare,4,1,46760,23102.0,45923.0,Microcosmos,Sokogen-990602-Levels,28,46,"['     ####', '    ##  #', '   ## . #', '#### $  #', '# $ $.@##', '#  .  ##', '#######']","['#######', '##  ###', '## .$ #', '# $$  #', '# #. .#', '#@  ###', '#######']"
8970-248ef224-45f0-409b-b3f9-00ecd37777f1,difficult,6790956f96019241f9c4f673,pretest,sokoban-compare,7,1,28312,13927.0,26211.0,Sokogen-990602-Levels,Dimitri-and-Yorick,19,37,"['######', '#@  .#', '#$$$ #', '#. # #', '#  . #', '######']","['######', '# @$.#', '# $$.#', '#  #.#', '#    #', '######']"
4896-b66aacea-64dd-49d3-a2ef-7ab7dcb4dd82,difficult,6790957096019241f9c4f68b,pretest,sokoban-compare,6,1,23472,11839.0,22633.0,Microban,Microcosmos,17,28,"['#####', '# @ #', '#...#', '#$$$##', '#    #', '#    #', '######']","['     ####', '    ##  #', '   ## . #', '#### $  #', '# $ $.@##', '#  .  ##', '#######']"
8829-549a72ed-1db2-424f-ba1f-171c5a187085,enjoyable,6790957096019241f9c4f687,pretest,sokoban-compare,8,1,22084,11204.0,21654.0,Microban,Sokogen-990602-Levels,48,39,"['######', '#  @ #', '#  # ##', '# .#  ##', '# .$$$ #', '# .#   #', '####   #', '   #####']","['######', '#    #', '# ## ##', '# . * ###', '## $ *  #', ' #  #  @#', ' ########']"
9452-adc2ff0b-2602-4162-a90b-ba6db4c203ce,enjoyable,6790956f96019241f9c4f67d,pretest,sokoban-compare,7,0,25834,10797.0,24718.0,Microban,Dimitri-and-Yorick,33,37,"['#######', '#. #  #', '#  $  #', '#. $#@#', '#  $  #', '#. #  #', '#######']","['######', '# @$.#', '# $$.#', '#  #.#', '#    #', '######']"
4716-1b2723d0-ff1a-41ed-8ea9-bceb42bd14ce,difficult,6790957096019241f9c4f68c,pretest,sokoban-compare,8,0,30839,17179.0,29760.0,Microcosmos,Microban,28,43,"['     ####', '    ##  #', '   ## . #', '#### $  #', '# $ $.@##', '#  .  ##', '#######']","['     ####', '     # @#', '     #  #', '###### .#', '#   $  .#', '#  $$# .#', '#    ####', '###  #', '  ####']"
4320-9a92a33e-6a72-478a-9973-6d8da20dea70,difficult,6790957096019241f9c4f692,pretest,sokoban-compare,5,0,27246,13054.0,25756.0,Sokogen-990602-Levels,Sokogen-990602-Levels,41,14,"['######', '#    #', '# ## ##', '# .$@.###', '## $$   #', ' #  #.  #', ' ########']","['######', '#  . #', '# #. ##', '#  .  #', '# $$$ #', '#  # @#', '#######']"
8498-7e0986a7-3f38-4667-9b8d-ca68dbbbee16,difficult,6790957096019241f9c4f693,pretest,sokoban-compare,1,1,31301,12702.0,27639.0,Sokogen-990602-Levels,Microcosmos,14,28,"['######', '#  . #', '# #. ##', '#  .  #', '# $$$ #', '#  # @#', '#######']","['     ####', '    ##  #', '   ## . #', '#### $  #', '# $ $.@##', '#  .  ##', '#######']"
9452-adc2ff0b-2602-4162-a90b-ba6db4c203ce,enjoyable,6790956f96019241f9c4f67d,pretest,sokoban-compare,8,1,22780,10731.0,21264.0,Sokogen-990602-Levels,Sokogen-990602-Levels,17,39,"['#####', '#@  ###', '# $$$ #', '## ...#', '#   # #', '#     #', '#######']","['######', '#    #', '# ## ##', '# . * ###', '## $ *  #', ' #  #  @#', ' ########']"
4896-b66aacea-64dd-49d3-a2ef-7ab7dcb4dd82,difficult,6790957096019241f9c4f68b,pretest,sokoban-compare,7,0,30080,17417.0,29147.0,Sokogen-990602-Levels,Sokogen-990602-Levels,14,40,"['######', '#  . #', '# #. ##', '#  .  #', '# $$$ #', '#  # @#', '#######']","['######', '#    ###', '# @#$  #', '# *.$  #', '# . #  #', '########']"
8970-248ef224-45f0-409b-b3f9-00ecd37777f1,difficult,6790956f96019241f9c4f673,pretest,sokoban-compare,8,1,39482,16947.0,38601.0,Sokogen-990602-Levels,Sokogen-990602-Levels,19,39,"['######', '#@  .#', '#$$$ #', '#. # #', '#  . #', '######']","['######', '#    #', '# ## ##', '# . * ###', '## $ *  #', ' #  #  @#', ' ########']"
5653-dfcb6dfa-3014-4033-875d-85592e44c67c,difficult,6790957096019241f9c4f68f,pretest,sokoban-compare,1,0,35899,21823.0,34683.0,Sokogen-990602-Levels,Sokogen-990602-Levels,41,14,"['######', '#    #', '# ## ##', '# .$@.###', '## $$   #', ' #  #.  #', ' ########']","['######', '#  . #', '# #. ##', '#  .  #', '# $$$ #', '#  # @#', '#######']"
8498-7e0986a7-3f38-4667-9b8d-ca68dbbbee16,difficult,6790957096019241f9c4f693,pretest,sokoban-compare,2,1,23357,10517.0,22421.0,Microban,Microcosmos,26,28,"[' #####', ' # @ #', ' #   #', '###$ #', '# ...#', '# $$ #', '###  #', '  ####']","['     ####', '    ##  #', '   ## . #', '#### $  #', '# $ $.@##', '#  .  ##', '#######']"
4320-9a92a33e-6a72-478a-9973-6d8da20dea70,difficult,6790957096019241f9c4f692,pretest,sokoban-compare,6,0,37040,19022.0,32044.0,Microban,Microban,17,43,"['#####', '# @ #', '#...#', '#$$$##', '#    #', '#    #', '######']","['     ####', '     # @#', '     #  #', '###### .#', '#   $  .#', '#  $$# .#', '#    ####', '###  #', '  ####']"
4896-b66aacea-64dd-49d3-a2ef-7ab7dcb4dd82,difficult,6790957096019241f9c4f68b,pretest,sokoban-compare,8,1,23429,11757.0,22398.0,Microban,Microban,26,43,"[' #####', ' # @ #', ' #   #', '###$ #', '# ...#', '# $$ #', '###  #', '  ####']","['     ####', '     # @#', '     #  #', '###### .#', '#   $  .#', '#  $$# .#', '#    ####', '###  #', '  ####']"
5829-72ec2758-b054-405d-84af-93958e222f07,difficult,6790957096019241f9c4f695,pretest,sokoban-compare,1,1,38162,12605.0,24789.0,Microcosmos,Sokogen-990602-Levels,28,40,"['     ####', '    ##  #', '   ## . #', '#### $  #', '# $ $.@##', '#  .  ##', '#######']","['######', '#    ###', '# @#$  #', '# *.$  #', '# . #  #', '########']"
9700-3f1fa752-1627-427b-862c-3c37ccdd3eab,enjoyable,6790956f96019241f9c4f682,pretest,sokoban-compare,1,0,24558,11375.0,22209.0,Microban,Sokogen-990602-Levels,33,39,"['#######', '#. #  #', '#  $  #', '#. $#@#', '#  $  #', '#. #  #', '#######']","['######', '#    #', '# ## ##', '# . * ###', '## $ *  #', ' #  #  @#', ' ########']"
8498-7e0986a7-3f38-4667-9b8d-ca68dbbbee16,difficult,6790957096019241f9c4f693,pretest,sokoban-compare,3,1,23714,12134.0,23086.0,Sokogen-990602-Levels,Microban,14,43,"['######', '#  . #', '# #. ##', '#  .  #', '# $$$ #', '#  # @#', '#######']","['     ####', '     # @#', '     #  #', '###### .#', '#   $  .#', '#  $$# .#', '#    ####', '###  #', '  ####']"
5653-dfcb6dfa-3014-4033-875d-85592e44c67c,difficult,6790957096019241f9c4f68f,pretest,sokoban-compare,2,0,32213,15171.0,28088.0,Microcosmos,Sokogen-990602-Levels,28,40,"['     ####', '    ##  #', '   ## . #', '#### $  #', '# $ $.@##', '#  .  ##', '#######']","['######', '#    ###', '# @#$  #', '# *.$  #', '# . #  #', '########']"
9700-3f1fa752-1627-427b-862c-3c37ccdd3eab,enjoyable,6790956f96019241f9c4f682,pretest,sokoban-compare,2,0,22948,10447.0,20931.0,Microban,Sokogen-990602-Levels,33,6,"['#######', '#. #  #', '#  $  #', '#. $#@#', '#  $  #', '#. #  #', '#######']","[' #####', '##   ###', '# .# $@#', '#  # # #', '# *  $.#', '#    ###', '######']"
5829-72ec2758-b054-405d-84af-93958e222f07,difficult,6790957096019241f9c4f695,pretest,sokoban-compare,2,1,34691,16838.0,32857.0,Sokogen-990602-Levels,Sokogen-990602-Levels,14,46,"['######', '#  . #', '# #. ##', '#  .  #', '# $$$ #', '#  # @#', '#######']","['#######', '##  ###', '## .$ #', '# $$  #', '# #. .#', '#@  ###', '#######']"
8498-7e0986a7-3f38-4667-9b8d-ca68dbbbee16,difficult,6790957096019241f9c4f693,pretest,sokoban-compare,4,0,28214,16542.0,27462.0,Microban,Sokogen-990602-Levels,17,46,"['#####', '# @ #', '#...#', '#$$$##', '#    #', '#    #', '######']","['#######', '##  ###', '## .$ #', '# $$  #', '# #. .#', '#@  ###', '#######']"
4320-9a92a33e-6a72-478a-9973-6d8da20dea70,difficult,6790957096019241f9c4f692,pretest,sokoban-compare,7,1,52539,33036.0,45697.0,Sokogen-990602-Levels,Microcosmos,41,28,"['######', '#    #', '# ## ##', '# .$@.###', '## $$   #', ' #  #.  #', ' ########']","['     ####', '    ##  #', '   ## . #', '#### $  #', '# $ $.@##', '#  .  ##', '#######']"
5653-dfcb6dfa-3014-4033-875d-85592e44c67c,difficult,6790957096019241f9c4f68f,pretest,sokoban-compare,3,0,34343,13891.0,31829.0,Sokogen-990602-Levels,Sokogen-990602-Levels,14,40,"['######', '#  . #', '# #. ##', '#  .  #', '# $$$ #', '#  # @#', '#######']","['######', '#    ###', '# @#$  #', '# *.$  #', '# . #  #', '########']"
1642-61ad1944-5d43-48a6-a027-842ccbac7568,difficult,6790957096019241f9c4f690,pretest,sokoban-compare,1,0,29929,14737.0,27845.0,Sokogen-990602-Levels,Microban,41,17,"['######', '#    #', '# ## ##', '# .$@.###', '## $$   #', ' #  #.  #', ' ########']","['#####', '# @ #', '#...#', '#$$$##', '#    #', '#    #', '######']"
5829-72ec2758-b054-405d-84af-93958e222f07,difficult,6790957096019241f9c4f695,pretest,sokoban-compare,3,1,25512,11320.0,24661.0,Microban,Sokogen-990602-Levels,17,14,"['#####', '# @ #', '#...#', '#$$$##', '#    #', '#    #', '######']","['######', '#  . #', '# #. ##', '#  .  #', '# $$$ #', '#  # @#', '#######']"
